<?xml version="1.0" encoding="UTF-8"?>

<Bundle xmlns="http://hl7.org/fhir">
  <id value="gravitate-Matilda"/>
  <identifier>
    <system value="https://www.gravitatehealth.eu/sid/doc"/>
    <value value="Matilda-ips-1"/>
  </identifier>
  <type value="document"/>
  <timestamp value="2021-04-18T09:22:00+02:00"/>
  <entry>
    <fullUrl value="matilda-comp"/>
    <resource>
      <Composition>
        <id value="gravitate-Matilda"/>
        <text>
          <status value="generated"/><div xmlns="http://www.w3.org/1999/xhtml"><p><b>Generated Narrative: Composition</b><a name="gravitate-Matilda"> </a></p><div style="display: inline-block; background-color: #d9e0e7; padding: 6px; margin: 4px; border: 1px solid #8da1b4; border-radius: 5px; line-height: 60%"><p style="margin-bottom: 0px">Resource Composition &quot;gravitate-Matilda&quot; </p></div><p><b>status</b>: final</p><p><b>type</b>: Patient summary Document <span style="background: LightGoldenRodYellow; margin: 4px; border: 1px solid khaki"> (<a href="https://loinc.org/">LOINC</a>#60591-5)</span></p><p><b>date</b>: 2018-07-10 15:22:00+0200</p><p><b>author</b>: <a href="#Practitioner_matilda-pract">See above (Practitioner/matilda-pract: Dr. Ana Lopez)</a></p><p><b>title</b>: Patient Summary (Matilda Gravitate)</p><p><b>confidentiality</b>: N</p></div>
        </text>
        <status value="final"/>
        <type>
          <coding>
            <system value="http://loinc.org"/>
            <code value="60591-5"/>
            <display value="Patient summary Document"/>
          </coding>
        </type>
        <subject>
          <reference value="Patient/matilda-patient"/>
          <display value="Matilda Gravitate"/>
        </subject>
        <date value="2018-07-10T15:22:00+02:00"/>
        <author>
          <reference value="Practitioner/matilda-pract"/>
          <display value="Dr. Ana Lopez"/>
        </author>
        <title value="Patient Summary (Matilda Gravitate)"/>
        <confidentiality value="N"/>
        <section>
          <title value="Problem List"/>
          <code>
            <coding>
              <system value="http://loinc.org"/>
              <code value="11450-4"/>
              <display value="Problem list Reported"/>
            </coding>
          </code>
          <entry>
            <reference value="Condition/matilda-cond-1"/>
            <display value="Crohn's disease"/>
          </entry>
        </section>
        <section>
          <title value="Medication Summary"/>
          <code>
            <coding>
              <system value="http://loinc.org"/>
              <code value="10160-0"/>
              <display value="Hx of Medication use"/>
            </coding>
          </code>
          <entry>
            <reference value="MedicationStatement/matilda-med-stat-1"/>
            <display value="Humira 40 mg"/>
          </entry>
          <entry>
            <reference value="MedicationStatement/matilda-med-stat-2"/>
            <display value="Paracetamol 500 mg"/>
          </entry>
          <entry>
            <reference value="MedicationStatement/matilda-med-stat-3"/>
            <display value="Pentasa 1g mesalazine"/>
          </entry>
        </section>
      </Composition>
    </resource>
  </entry>
  <entry>
    <fullUrl value="matilda-patient"/>
    <resource>
      <Patient>
        <id value="matilda-patient"/>
        <text>
          <status value="extensions"/><div xmlns="http://www.w3.org/1999/xhtml"><p><b>Generated Narrative: Patient</b><a name="matilda-patient"> </a></p><div style="display: inline-block; background-color: #d9e0e7; padding: 6px; margin: 4px; border: 1px solid #8da1b4; border-radius: 5px; line-height: 60%"><p style="margin-bottom: 0px">Resource Patient &quot;matilda-patient&quot; </p></div><blockquote><p><b>citizenship</b></p><p><b>value</b>: Spain <span style="background: LightGoldenRodYellow; margin: 4px; border: 1px solid khaki"> (<a href="http://terminology.hl7.org/5.0.0/CodeSystem-ISO3166Part1.html">ISO 3166-1 Codes for the representation of names of countries and their subdivisions — Part 1: Country code</a>#ES)</span></p></blockquote><p><b>identifier</b>: id: Matilda-1</p><p><b>active</b>: true</p><p><b>name</b>: Matilda Gravitate </p><p><b>gender</b>: female</p><p><b>birthDate</b>: 1950-09-01</p></div>
        </text>
        <extension url="http://hl7.org/fhir/StructureDefinition/patient-citizenship">
          <extension url="code">
            <valueCodeableConcept>
              <coding>
                <system value="urn:iso:std:iso:3166"/>
                <code value="ES"/>
                <display value="Spain"/>
              </coding>
            </valueCodeableConcept>
          </extension>
        </extension>
        <identifier>
          <system value="https://www.gravitatehealth.eu/sid/doc"/>
          <value value="Matilda-1"/>
        </identifier>
        <active value="true"/>
        <name>
          <family value="Gravitate"/>
          <given value="Matilda"/>
        </name>
        <gender value="female"/>
        <birthDate value="1950-09-01"/>
      </Patient>
    </resource>
  </entry>
  <entry>
    <fullUrl value="matilda-pract"/>
    <resource>
      <Practitioner>
        <id value="matilda-pract"/>
        <text>
          <status value="generated"/><div xmlns="http://www.w3.org/1999/xhtml">Dr. Ana Lopez</div>
        </text>
        <name>
          <family value="Lopez"/>
          <given value="Ana"/>
          <prefix value="Dr."/>
        </name>
      </Practitioner>
    </resource>
  </entry>
  <entry>
    <fullUrl value="matilda-cond-1"/>
    <resource>
      <Condition>
        <id value="matilda-cond-1"/>
        <text>
          <status value="generated"/><div xmlns="http://www.w3.org/1999/xhtml">Crohn's disease</div>
        </text>
        <clinicalStatus>
          <coding>
            <system value="http://terminology.hl7.org/CodeSystem/condition-clinical"/>
            <code value="active"/>
          </coding>
        </clinicalStatus>
        <code>
          <coding>
            <system value="http://snomed.info/sct"/>
            <code value="34000006"/>
            <display value="Crohn's disease"/>
          </coding>
          <text value="Crohn's disease"/>
        </code>
        <subject>
          <reference value="Patient/matilda-patient"/>
          <display value="Matilda Gravitate"/>
        </subject>
        <onsetDateTime value="2015"/>
        <asserter>
          <reference value="urn:uuid:45cd0bd4-f685-4117-a9f0-5c53fffb7266"/>
          <display value="Dr. Ana Lopez"/>
        </asserter>
      </Condition>
    </resource>
  </entry>
  <entry>
    <fullUrl value="matilda-med-stat-1"/>
    <resource>
      <MedicationStatement>
        <id value="matilda-med-stat-1"/>
        <text>
          <status value="generated"/><div xmlns="http://www.w3.org/1999/xhtml"><p><b>Generated Narrative: MedicationStatement</b><a name="matilda-med-stat-1"> </a></p><div style="display: inline-block; background-color: #d9e0e7; padding: 6px; margin: 4px; border: 1px solid #8da1b4; border-radius: 5px; line-height: 60%"><p style="margin-bottom: 0px">Resource MedicationStatement &quot;matilda-med-stat-1&quot; </p></div><p><b>status</b>: active</p><p><b>medication</b>: <a href="#Medication_fdb5c97f-0a46-41ba-bc34-2efd2ef2f7et">See above (Medication/fdb5c97f-0a46-41ba-bc34-2efd2ef2f7et: Monuril 3g granules for oral solution)</a></p><p><b>subject</b>: <a href="#Patient_matilda-patient">See above (Patient/matilda-patient: Matilda Gravitate)</a></p><h3>Dosages</h3><table class="grid"><tr><td>-</td><td><b>Route</b></td></tr><tr><td>*</td><td>Oral use <span style="background: LightGoldenRodYellow; margin: 4px; border: 1px solid khaki"> (standardterms.edqm.eu#20053000)</span></td></tr></table></div>
        </text>
        <status value="active"/>
        <medicationReference>
          <reference value="Medication/fdb5c97f-0a46-41ba-bc34-2efd2ef2f7et"/>
          <display value="Monuril 3g granules for oral solution"/>
        </medicationReference>
        <subject>
          <reference value="Patient/matilda-patient"/>
          <display value="Matilda Gravitate"/>
        </subject>
        <dosage>
          <route>
            <coding>
              <system value="http://standardterms.edqm.eu"/>
              <code value="20053000"/>
              <display value="Oral use"/>
            </coding>
          </route>
        </dosage>
      </MedicationStatement>
    </resource>
  </entry>
  <entry>
    <fullUrl value="matilda-med-stat-2"/>
    <resource>
      <MedicationStatement>
        <id value="matilda-med-stat-2"/>
        <text>
          <status value="generated"/><div xmlns="http://www.w3.org/1999/xhtml"><p><b>Generated Narrative: MedicationStatement</b><a name="matilda-med-stat-2"> </a></p><div style="display: inline-block; background-color: #d9e0e7; padding: 6px; margin: 4px; border: 1px solid #8da1b4; border-radius: 5px; line-height: 60%"><p style="margin-bottom: 0px">Resource MedicationStatement &quot;matilda-med-stat-2&quot; </p></div><p><b>status</b>: active</p><p><b>medication</b>: <a href="#Medication_fdb5c97f-0a46-41ba-bc34-2efd2ef2f7eu">See above (Medication/fdb5c97f-0a46-41ba-bc34-2efd2ef2f7eu: Oxymetazoline hydrochloride  0.05 mg / 1 ml Spray)</a></p><p><b>subject</b>: <a href="#Patient_matilda-patient">See above (Patient/matilda-patient: Matilda Gravitate)</a></p><h3>Dosages</h3><table class="grid"><tr><td>-</td><td><b>Route</b></td></tr><tr><td>*</td><td>Nasal use <span style="background: LightGoldenRodYellow; margin: 4px; border: 1px solid khaki"> (standardterms.edqm.eu#20049000)</span></td></tr></table></div>
        </text>
        <status value="active"/>
        <medicationReference>
          <reference value="Medication/fdb5c97f-0a46-41ba-bc34-2efd2ef2f7eu"/>
          <display value="Oxymetazoline hydrochloride  0.05 mg / 1 ml Spray"/>
        </medicationReference>
        <subject>
          <reference value="Patient/matilda-patient"/>
          <display value="Matilda Gravitate"/>
        </subject>
        <dosage>
          <route>
            <coding>
              <system value="http://standardterms.edqm.eu"/>
              <code value="20049000"/>
              <display value="Nasal use"/>
            </coding>
          </route>
        </dosage>
      </MedicationStatement>
    </resource>
  </entry>
  <entry>
    <fullUrl value="matilda-med-stat-3"/>
    <resource>
      <MedicationStatement>
        <id value="matilda-med-stat-3"/>
        <text>
          <status value="generated"/><div xmlns="http://www.w3.org/1999/xhtml"><p><b>Generated Narrative: MedicationStatement</b><a name="matilda-med-stat-3"> </a></p><div style="display: inline-block; background-color: #d9e0e7; padding: 6px; margin: 4px; border: 1px solid #8da1b4; border-radius: 5px; line-height: 60%"><p style="margin-bottom: 0px">Resource MedicationStatement &quot;matilda-med-stat-3&quot; </p></div><p><b>status</b>: active</p><p><b>medication</b>: <a href="#Medication_9d7be868-8264-4d94-ad04-ef04ecc92e51">See above (Medication/9d7be868-8264-4d94-ad04-ef04ecc92e51: Oxymetazoline hydrochloride  0.05 mg / 1 ml Spray)</a></p><p><b>subject</b>: <a href="#Patient_matilda-patient">See above (Patient/matilda-patient: Matilda Gravitate)</a></p><h3>Dosages</h3><table class="grid"><tr><td>-</td><td><b>Route</b></td></tr><tr><td>*</td><td>Nasal use <span style="background: LightGoldenRodYellow; margin: 4px; border: 1px solid khaki"> (standardterms.edqm.eu#20049000)</span></td></tr></table></div>
        </text>
        <status value="active"/>
        <medicationReference>
          <reference value="Medication/9d7be868-8264-4d94-ad04-ef04ecc92e51"/>
          <display value="Oxymetazoline hydrochloride  0.05 mg / 1 ml Spray"/>
        </medicationReference>
        <subject>
          <reference value="Patient/matilda-patient"/>
          <display value="Matilda Gravitate"/>
        </subject>
        <dosage>
          <route>
            <coding>
              <system value="http://standardterms.edqm.eu"/>
              <code value="20049000"/>
              <display value="Nasal use"/>
            </coding>
          </route>
        </dosage>
      </MedicationStatement>
    </resource>
  </entry>
  <entry>
    <fullUrl value="urn:uuid:9d7be868-8264-4d94-ad04-ef04ecc92e51"/>
    <resource>
      <Medication>
        <id value="9d7be868-8264-4d94-ad04-ef04ecc92e51"/>
        <text>
          <status value="generated"/><div xmlns="http://www.w3.org/1999/xhtml"><p><b>Generated Narrative: Medication</b><a name="9d7be868-8264-4d94-ad04-ef04ecc92e51"> </a></p><div style="display: inline-block; background-color: #d9e0e7; padding: 6px; margin: 4px; border: 1px solid #8da1b4; border-radius: 5px; line-height: 60%"><p style="margin-bottom: 0px">Resource Medication &quot;9d7be868-8264-4d94-ad04-ef04ecc92e51&quot; </p></div><p><b>code</b>: Humalog Mix50 <span style="background: LightGoldenRodYellow; margin: 4px; border: 1px solid khaki"> (marketingAuthorizationNumber#EU/1/96/007/035; phpid#0x073AF2E5B92AE19E8B67635AFFB3D6CA &quot;insulin lispro, 100 units/ml, suspension for injection&quot;; SNOMED CT#13884911000001102 &quot;Humalog Mix50 KwikPen 100units/ml suspension for injection 3ml pre-filled pens&quot;; <a href="http://terminology.hl7.org/5.0.0/CodeSystem-v3-WC.html">WHO ATC</a>#A10AD04 &quot;insulin lispro&quot;)</span></p><p><b>form</b>: Suspension for injection <span style="background: LightGoldenRodYellow; margin: 4px; border: 1px solid khaki"> (standardterms.edqm.eu#11202000)</span></p><h3>Ingredients</h3><table class="grid"><tr><td>-</td><td><b>Item[x]</b></td><td><b>Strength</b></td></tr><tr><td>*</td><td>insulin lispro <span style="background: LightGoldenRodYellow; margin: 4px; border: 1px solid khaki"> (<a href="http://terminology.hl7.org/5.0.0/CodeSystem-UNII.html">Unique Ingredient Identifier (UNII)</a>#GFX7QIS1II)</span></td><td>100 U<span style="background: LightGoldenRodYellow"> (Details: UCUM code U = 'U')</span>/1 ml<span style="background: LightGoldenRodYellow"> (Details: UCUM code ml = 'ml')</span></td></tr></table></div>
        </text>
        <code>
          <coding>
            <system value="http://ema.europa.eu/fhir/marketingAuthorizationNumber"/>
            <code value="EU/1/96/007/035"/>
            <display value="Humalog Mix50"/>
          </coding>
          <coding>
            <system value="https://www.who-umc.org/phpid"/>
            <code value="0x073AF2E5B92AE19E8B67635AFFB3D6CA"/>
            <display value="insulin lispro, 100 units/ml, suspension for injection"/>
          </coding>
          <coding>
            <system value="http://snomed.info/sct/83821000000107"/>
            <code value="13884911000001102"/>
            <display value="Humalog Mix50 KwikPen 100units/ml suspension for injection 3ml pre-filled pens"/>
          </coding>
          <coding>
            <system value="http://www.whocc.no/atc"/>
            <code value="A10AD04"/>
            <display value="insulin lispro"/>
          </coding>
        </code>
        <form>
          <coding>
            <system value="http://standardterms.edqm.eu"/>
            <code value="11202000"/>
            <display value="Suspension for injection"/>
          </coding>
        </form>
        <ingredient>
          <itemCodeableConcept>
            <coding>
              <system value="http://fdasis.nlm.nih.gov"/>
              <code value="GFX7QIS1II"/>
              <display value="insulin lispro"/>
            </coding>
            <text value="insulin lispro"/>
          </itemCodeableConcept>
          <strength>
            <numerator>
              <value value="100"/>
              <system value="http://unitsofmeasure.org"/>
              <code value="U"/>
            </numerator>
            <denominator>
              <value value="1"/>
              <system value="http://unitsofmeasure.org"/>
              <code value="ml"/>
            </denominator>
          </strength>
        </ingredient>
      </Medication>
    </resource>
  </entry>
  <entry>
    <fullUrl value="urn:uuid:fdb5c97f-0a46-41ba-bc34-2efd2ef2f7et"/>
    <resource>
      <Medication>
        <id value="fdb5c97f-0a46-41ba-bc34-2efd2ef2f7et"/>
        <text>
          <status value="generated"/><div xmlns="http://www.w3.org/1999/xhtml"><p><b>Generated Narrative: Medication</b><a name="fdb5c97f-0a46-41ba-bc34-2efd2ef2f7et"> </a></p><div style="display: inline-block; background-color: #d9e0e7; padding: 6px; margin: 4px; border: 1px solid #8da1b4; border-radius: 5px; line-height: 60%"><p style="margin-bottom: 0px">Resource Medication &quot;fdb5c97f-0a46-41ba-bc34-2efd2ef2f7et&quot; </p></div><p><b>code</b>: Monuril <span style="background: LightGoldenRodYellow; margin: 4px; border: 1px solid khaki"> (marketingAuthorizationNumber#PL31654/0006; phpid#0xE857DA811B4A6F3BD57810C45D2EA1ED &quot;Fosfomycin, 3g, Granules for oral solution&quot;; <a href="http://terminology.hl7.org/5.0.0/CodeSystem-v3-WC.html">WHO ATC</a>#J01XX01 &quot;fosfomycin&quot;)</span></p><p><b>form</b>: Granules for oral solution <span style="background: LightGoldenRodYellow; margin: 4px; border: 1px solid khaki"> (standardterms.edqm.eu#10112000)</span></p><h3>Ingredients</h3><table class="grid"><tr><td>-</td><td><b>Item[x]</b></td><td><b>Strength</b></td></tr><tr><td>*</td><td>FOSFOMYCIN TROMETAMOL <span style="background: LightGoldenRodYellow; margin: 4px; border: 1px solid khaki"> (<a href="http://terminology.hl7.org/5.0.0/CodeSystem-UNII.html">Unique Ingredient Identifier (UNII)</a>#7FXW6U30GY &quot;FOSFOMYCIN TROMETHAMINE&quot;)</span></td><td>5.631 g<span style="background: LightGoldenRodYellow"> (Details: UCUM code g = 'g')</span>/1 {sachet}<span style="background: LightGoldenRodYellow"> (Details: UCUM code {sachet} = '{sachet}')</span></td></tr></table></div>
        </text>
        <code>
          <coding>
            <system value="http://ema.europa.eu/fhir/marketingAuthorizationNumber"/>
            <code value="PL31654/0006"/>
            <display value="Monuril"/>
          </coding>
          <coding>
            <system value="https://www.who-umc.org/phpid"/>
            <code value="0xE857DA811B4A6F3BD57810C45D2EA1ED"/>
            <display value="Fosfomycin, 3g, Granules for oral solution"/>
          </coding>
          <coding>
            <system value="http://www.whocc.no/atc"/>
            <code value="J01XX01"/>
            <display value="fosfomycin"/>
          </coding>
        </code>
        <form>
          <coding>
            <system value="http://standardterms.edqm.eu"/>
            <code value="10112000"/>
            <display value="Granules for oral solution"/>
          </coding>
        </form>
        <ingredient>
          <itemCodeableConcept>
            <coding>
              <system value="http://fdasis.nlm.nih.gov"/>
              <code value="7FXW6U30GY"/>
              <display value="FOSFOMYCIN TROMETHAMINE"/>
            </coding>
            <text value="FOSFOMYCIN TROMETAMOL"/>
          </itemCodeableConcept>
          <strength>
            <numerator>
              <value value="5.631"/>
              <system value="http://unitsofmeasure.org"/>
              <code value="g"/>
            </numerator>
            <denominator>
              <value value="1"/>
              <system value="http://unitsofmeasure.org"/>
              <code value="{sachet}"/>
            </denominator>
          </strength>
        </ingredient>
      </Medication>
    </resource>
  </entry>
  <entry>
    <fullUrl value="urn:uuid:fdb5c97f-0a46-41ba-bc34-2efd2ef2f7eu"/>
    <resource>
      <Medication>
        <id value="fdb5c97f-0a46-41ba-bc34-2efd2ef2f7eu"/>
        <text>
          <status value="generated"/><div xmlns="http://www.w3.org/1999/xhtml"><p><b>Generated Narrative: Medication</b><a name="fdb5c97f-0a46-41ba-bc34-2efd2ef2f7eu"> </a></p><div style="display: inline-block; background-color: #d9e0e7; padding: 6px; margin: 4px; border: 1px solid #8da1b4; border-radius: 5px; line-height: 60%"><p style="margin-bottom: 0px">Resource Medication &quot;fdb5c97f-0a46-41ba-bc34-2efd2ef2f7eu&quot; </p></div><p><b>code</b>: Boots Decongestant 0.05% w/v Nasal spray <span style="background: LightGoldenRodYellow; margin: 4px; border: 1px solid khaki"> (man#16028/0049; phpid#0xF79CABF272B6A7EEF104DDDA44E82716 &quot;Oxymetazoline hydrochloride, 0.5 mg/ 1 ml, Nasal spray, solution&quot;; <a href="http://terminology.hl7.org/5.0.0/CodeSystem-v3-WC.html">WHO ATC</a>#R01AA05 &quot;oxymetazoline&quot;)</span></p><p><b>form</b>: Nasal spray, solution <span style="background: LightGoldenRodYellow; margin: 4px; border: 1px solid khaki"> ()</span></p><h3>Ingredients</h3><table class="grid"><tr><td>-</td><td><b>Item[x]</b></td><td><b>Strength</b></td></tr><tr><td>*</td><td>oxymetazoline hydrochloride <span style="background: LightGoldenRodYellow; margin: 4px; border: 1px solid khaki"> (<a href="http://terminology.hl7.org/5.0.0/CodeSystem-UNII.html">Unique Ingredient Identifier (UNII)</a>#K89MJ0S5VY)</span></td><td>0.05 mg<span style="background: LightGoldenRodYellow"> (Details: UCUM code mg = 'mg')</span>/1 ml<span style="background: LightGoldenRodYellow"> (Details: UCUM code ml = 'ml')</span></td></tr></table></div>
        </text>
        <code>
          <coding>
            <system value="https://www.gravitatehealth.eu/sid/man"/>
            <code value="16028/0049"/>
            <display value="Boots Decongestant 0.05% w/v Nasal spray"/>
          </coding>
          <coding>
            <system value="https://www.who-umc.org/phpid"/>
            <code value="0xF79CABF272B6A7EEF104DDDA44E82716"/>
            <display value="Oxymetazoline hydrochloride, 0.5 mg/ 1 ml, Nasal spray, solution"/>
          </coding>
          <coding>
            <system value="http://www.whocc.no/atc"/>
            <code value="R01AA05"/>
            <display value="oxymetazoline"/>
          </coding>
        </code>
        <form>
          <text value="Nasal spray, solution"/>
        </form>
        <ingredient>
          <itemCodeableConcept>
            <coding>
              <system value="http://fdasis.nlm.nih.gov"/>
              <code value="K89MJ0S5VY"/>
              <display value="oxymetazoline hydrochloride"/>
            </coding>
            <text value="oxymetazoline hydrochloride"/>
          </itemCodeableConcept>
          <strength>
            <numerator>
              <value value="0.05"/>
              <system value="http://unitsofmeasure.org"/>
              <code value="mg"/>
            </numerator>
            <denominator>
              <value value="1"/>
              <system value="http://unitsofmeasure.org"/>
              <code value="ml"/>
            </denominator>
          </strength>
        </ingredient>
      </Medication>
    </resource>
  </entry>
</Bundle>