{
  "resourceType" : "Bundle",
  "id" : "gravitate-Matilda",
  "identifier" : {
    "system" : "https://www.gravitatehealth.eu/sid/doc",
    "value" : "Matilda-ips-1"
  },
  "type" : "document",
  "timestamp" : "2021-04-18T09:22:00+02:00",
  "entry" : [{
    "fullUrl" : "matilda-comp",
    "resource" : {
      "resourceType" : "Composition",
      "id" : "gravitate-Matilda",
      "text" : {
        "status" : "generated",
        "div" : "<div xmlns=\"http://www.w3.org/1999/xhtml\"><b>Id:</b> gravitate-Matilda<br/><b>status:</b> final<br/><b>Type:</b> Patient summary Document<br/><b>Subject:</b> Matilda Gravitate<br/><b>Sections:</b><br/><ul><li><b>Title:</b> Problem List<br/><b>Code:</b> Problem list Reported (11450-4)</li><br/><ul><li><b>Entry:</b> <a href=\"Condition-matilda-cond-1.html\">Crohn's disease</a></li><br/></ul><li><b>Title:</b> Medication Summary<br/><b>Code:</b> Hx of Medication use (10160-0)</li><br/><ul><li><b>Entry:</b> <a href=\"MedicationStatement-matilda-med-stat-1.html\">Humira 40 mg</a></li><br/><li><b>Entry:</b> <a href=\"MedicationStatement-matilda-med-stat-2.html\">Paracetamol 500 mg</a></li><br/><li><b>Entry:</b> <a href=\"MedicationStatement-matilda-med-stat-3.html\">Pentasa 1g mesalazine</a></li><br/></ul></ul></div>"
      },
      "status" : "final",
      "type" : {
        "coding" : [{
          "system" : "http://loinc.org",
          "code" : "60591-5",
          "display" : "Patient summary Document"
        }]
      },
      "subject" : {
        "reference" : "Patient/matilda-patient",
        "display" : "Matilda Gravitate"
      },
      "date" : "2018-07-10T15:22:00+02:00",
      "author" : [{
        "reference" : "Practitioner/matilda-pract",
        "display" : "Dr. Ana Lopez"
      }],
      "title" : "Patient Summary (Matilda Gravitate)",
      "confidentiality" : "N",
      "section" : [{
        "title" : "Problem List",
        "code" : {
          "coding" : [{
            "system" : "http://loinc.org",
            "code" : "11450-4",
            "display" : "Problem list Reported"
          }]
        },
        "entry" : [{
          "reference" : "Condition/matilda-cond-1",
          "display" : "Crohn's disease"
        }]
      },
      {
        "title" : "Medication Summary",
        "code" : {
          "coding" : [{
            "system" : "http://loinc.org",
            "code" : "10160-0",
            "display" : "Hx of Medication use"
          }]
        },
        "entry" : [{
          "reference" : "MedicationStatement/matilda-med-stat-1",
          "display" : "Humira 40 mg"
        },
        {
          "reference" : "MedicationStatement/matilda-med-stat-2",
          "display" : "Paracetamol 500 mg"
        },
        {
          "reference" : "MedicationStatement/matilda-med-stat-3",
          "display" : "Pentasa 1g mesalazine"
        }]
      }]
    }
  },
  {
    "fullUrl" : "matilda-patient",
    "resource" : {
      "resourceType" : "Patient",
      "id" : "matilda-patient",
      "text" : {
        "status" : "extensions",
        "div" : "<div xmlns=\"http://www.w3.org/1999/xhtml\"><p><b>Generated Narrative: Patient</b><a name=\"matilda-patient\"> </a></p><div style=\"display: inline-block; background-color: #d9e0e7; padding: 6px; margin: 4px; border: 1px solid #8da1b4; border-radius: 5px; line-height: 60%\"><p style=\"margin-bottom: 0px\">Resource Patient &quot;matilda-patient&quot; </p></div><blockquote><p><b>citizenship</b></p><p><b>value</b>: Spain <span style=\"background: LightGoldenRodYellow; margin: 4px; border: 1px solid khaki\"> (<a href=\"http://terminology.hl7.org/5.0.0/CodeSystem-ISO3166Part1.html\">ISO 3166-1 Codes for the representation of names of countries and their subdivisions — Part 1: Country code</a>#ES)</span></p></blockquote><p><b>identifier</b>: id: Matilda-1</p><p><b>active</b>: true</p><p><b>name</b>: Matilda Gravitate </p><p><b>gender</b>: female</p><p><b>birthDate</b>: 1950-09-01</p></div>"
      },
      "extension" : [{
        "extension" : [{
          "url" : "code",
          "valueCodeableConcept" : {
            "coding" : [{
              "system" : "urn:iso:std:iso:3166",
              "code" : "ES",
              "display" : "Spain"
            }]
          }
        }],
        "url" : "http://hl7.org/fhir/StructureDefinition/patient-citizenship"
      }],
      "identifier" : [{
        "system" : "https://www.gravitatehealth.eu/sid/doc",
        "value" : "Matilda-1"
      }],
      "active" : true,
      "name" : [{
        "family" : "Gravitate",
        "given" : ["Matilda"]
      }],
      "gender" : "female",
      "birthDate" : "1950-09-01"
    }
  },
  {
    "fullUrl" : "matilda-pract",
    "resource" : {
      "resourceType" : "Practitioner",
      "id" : "matilda-pract",
      "text" : {
        "status" : "generated",
        "div" : "<div xmlns=\"http://www.w3.org/1999/xhtml\"><p><b>Generated Narrative: Practitioner</b><a name=\"matilda-pract\"> </a></p><div style=\"display: inline-block; background-color: #d9e0e7; padding: 6px; margin: 4px; border: 1px solid #8da1b4; border-radius: 5px; line-height: 60%\"><p style=\"margin-bottom: 0px\">Resource Practitioner &quot;matilda-pract&quot; </p></div><p><b>name</b>: Ana Lopez </p></div>"
      },
      "name" : [{
        "family" : "Lopez",
        "given" : ["Ana"],
        "prefix" : ["Dr."]
      }]
    }
  },
  {
    "fullUrl" : "matilda-cond-1",
    "resource" : {
      "resourceType" : "Condition",
      "id" : "matilda-cond-1",
      "text" : {
        "status" : "generated",
        "div" : "<div xmlns=\"http://www.w3.org/1999/xhtml\"><p><b>Generated Narrative: Condition</b><a name=\"matilda-cond-1\"> </a></p><div style=\"display: inline-block; background-color: #d9e0e7; padding: 6px; margin: 4px; border: 1px solid #8da1b4; border-radius: 5px; line-height: 60%\"><p style=\"margin-bottom: 0px\">Resource Condition &quot;matilda-cond-1&quot; </p></div><p><b>clinicalStatus</b>: Active <span style=\"background: LightGoldenRodYellow; margin: 4px; border: 1px solid khaki\"> (<a href=\"http://terminology.hl7.org/5.0.0/CodeSystem-condition-clinical.html\">Condition Clinical Status Codes</a>#active)</span></p><p><b>code</b>: Crohn's disease <span style=\"background: LightGoldenRodYellow; margin: 4px; border: 1px solid khaki\"> (<a href=\"https://browser.ihtsdotools.org/\">SNOMED CT</a>#34000006)</span></p><p><b>subject</b>: <a href=\"#Patient_matilda-patient\">See above (Patient/matilda-patient: Matilda Gravitate)</a></p><p><b>onset</b>: 2015</p><p><b>asserter</b>: <a href=\"Bundle-gravitate-helen.html#urn-uuid-45cd0bd4-f685-4117-a9f0-5c53fffb7266\">urn:uuid:45cd0bd4-f685-4117-a9f0-5c53fffb7266: Dr. Ana Lopez</a></p></div>"
      },
      "clinicalStatus" : {
        "coding" : [{
          "system" : "http://terminology.hl7.org/CodeSystem/condition-clinical",
          "code" : "active"
        }]
      },
      "code" : {
        "coding" : [{
          "system" : "http://snomed.info/sct",
          "code" : "34000006",
          "display" : "Crohn's disease"
        }],
        "text" : "Crohn's disease"
      },
      "subject" : {
        "reference" : "Patient/matilda-patient",
        "display" : "Matilda Gravitate"
      },
      "onsetDateTime" : "2015",
      "asserter" : {
        "reference" : "urn:uuid:45cd0bd4-f685-4117-a9f0-5c53fffb7266",
        "display" : "Dr. Ana Lopez"
      }
    }
  },
  {
    "fullUrl" : "matilda-med-stat-1",
    "resource" : {
      "resourceType" : "MedicationStatement",
      "id" : "matilda-med-stat-1",
      "text" : {
        "status" : "generated",
        "div" : "<div xmlns=\"http://www.w3.org/1999/xhtml\"><p><b>Generated Narrative: MedicationStatement</b><a name=\"matilda-med-stat-1\"> </a></p><div style=\"display: inline-block; background-color: #d9e0e7; padding: 6px; margin: 4px; border: 1px solid #8da1b4; border-radius: 5px; line-height: 60%\"><p style=\"margin-bottom: 0px\">Resource MedicationStatement &quot;matilda-med-stat-1&quot; </p></div><p><b>status</b>: active</p><p><b>medication</b>: <a href=\"#Medication_fdb5c97f-0a46-41ba-bc34-2efd2ef2f7et\">See above (Medication/fdb5c97f-0a46-41ba-bc34-2efd2ef2f7et: Monuril 3g granules for oral solution)</a></p><p><b>subject</b>: <a href=\"#Patient_matilda-patient\">See above (Patient/matilda-patient: Matilda Gravitate)</a></p><h3>Dosages</h3><table class=\"grid\"><tr><td>-</td><td><b>Route</b></td></tr><tr><td>*</td><td>Oral use <span style=\"background: LightGoldenRodYellow; margin: 4px; border: 1px solid khaki\"> (standardterms.edqm.eu#20053000)</span></td></tr></table></div>"
      },
      "status" : "active",
      "medicationReference" : {
        "reference" : "Medication/fdb5c97f-0a46-41ba-bc34-2efd2ef2f7et",
        "display" : "Monuril 3g granules for oral solution"
      },
      "subject" : {
        "reference" : "Patient/matilda-patient",
        "display" : "Matilda Gravitate"
      },
      "dosage" : [{
        "route" : {
          "coding" : [{
            "system" : "http://standardterms.edqm.eu",
            "code" : "20053000",
            "display" : "Oral use"
          }]
        }
      }]
    }
  },
  {
    "fullUrl" : "matilda-med-stat-2",
    "resource" : {
      "resourceType" : "MedicationStatement",
      "id" : "matilda-med-stat-2",
      "text" : {
        "status" : "generated",
        "div" : "<div xmlns=\"http://www.w3.org/1999/xhtml\"><p><b>Generated Narrative: MedicationStatement</b><a name=\"matilda-med-stat-2\"> </a></p><div style=\"display: inline-block; background-color: #d9e0e7; padding: 6px; margin: 4px; border: 1px solid #8da1b4; border-radius: 5px; line-height: 60%\"><p style=\"margin-bottom: 0px\">Resource MedicationStatement &quot;matilda-med-stat-2&quot; </p></div><p><b>status</b>: active</p><p><b>medication</b>: <a href=\"#Medication_fdb5c97f-0a46-41ba-bc34-2efd2ef2f7eu\">See above (Medication/fdb5c97f-0a46-41ba-bc34-2efd2ef2f7eu: Oxymetazoline hydrochloride  0.05 mg / 1 ml Spray)</a></p><p><b>subject</b>: <a href=\"#Patient_matilda-patient\">See above (Patient/matilda-patient: Matilda Gravitate)</a></p><h3>Dosages</h3><table class=\"grid\"><tr><td>-</td><td><b>Route</b></td></tr><tr><td>*</td><td>Nasal use <span style=\"background: LightGoldenRodYellow; margin: 4px; border: 1px solid khaki\"> (standardterms.edqm.eu#20049000)</span></td></tr></table></div>"
      },
      "status" : "active",
      "medicationReference" : {
        "reference" : "Medication/fdb5c97f-0a46-41ba-bc34-2efd2ef2f7eu",
        "display" : "Oxymetazoline hydrochloride  0.05 mg / 1 ml Spray"
      },
      "subject" : {
        "reference" : "Patient/matilda-patient",
        "display" : "Matilda Gravitate"
      },
      "dosage" : [{
        "route" : {
          "coding" : [{
            "system" : "http://standardterms.edqm.eu",
            "code" : "20049000",
            "display" : "Nasal use"
          }]
        }
      }]
    }
  },
  {
    "fullUrl" : "matilda-med-stat-3",
    "resource" : {
      "resourceType" : "MedicationStatement",
      "id" : "matilda-med-stat-3",
      "text" : {
        "status" : "generated",
        "div" : "<div xmlns=\"http://www.w3.org/1999/xhtml\"><p><b>Generated Narrative: MedicationStatement</b><a name=\"matilda-med-stat-3\"> </a></p><div style=\"display: inline-block; background-color: #d9e0e7; padding: 6px; margin: 4px; border: 1px solid #8da1b4; border-radius: 5px; line-height: 60%\"><p style=\"margin-bottom: 0px\">Resource MedicationStatement &quot;matilda-med-stat-3&quot; </p></div><p><b>status</b>: active</p><p><b>medication</b>: <a href=\"#Medication_9d7be868-8264-4d94-ad04-ef04ecc92e51\">See above (Medication/9d7be868-8264-4d94-ad04-ef04ecc92e51: Oxymetazoline hydrochloride  0.05 mg / 1 ml Spray)</a></p><p><b>subject</b>: <a href=\"#Patient_matilda-patient\">See above (Patient/matilda-patient: Matilda Gravitate)</a></p><h3>Dosages</h3><table class=\"grid\"><tr><td>-</td><td><b>Route</b></td></tr><tr><td>*</td><td>Nasal use <span style=\"background: LightGoldenRodYellow; margin: 4px; border: 1px solid khaki\"> (standardterms.edqm.eu#20049000)</span></td></tr></table></div>"
      },
      "status" : "active",
      "medicationReference" : {
        "reference" : "Medication/9d7be868-8264-4d94-ad04-ef04ecc92e51",
        "display" : "Oxymetazoline hydrochloride  0.05 mg / 1 ml Spray"
      },
      "subject" : {
        "reference" : "Patient/matilda-patient",
        "display" : "Matilda Gravitate"
      },
      "dosage" : [{
        "route" : {
          "coding" : [{
            "system" : "http://standardterms.edqm.eu",
            "code" : "20049000",
            "display" : "Nasal use"
          }]
        }
      }]
    }
  },
  {
    "fullUrl" : "9d7be868-8264-4d94-ad04-ef04ecc92e51",
    "resource" : {
      "resourceType" : "Medication",
      "id" : "9d7be868-8264-4d94-ad04-ef04ecc92e51",
      "text" : {
        "status" : "generated",
        "div" : "<div xmlns=\"http://www.w3.org/1999/xhtml\"><p><b>Generated Narrative: Medication</b><a name=\"9d7be868-8264-4d94-ad04-ef04ecc92e51\"> </a></p><div style=\"display: inline-block; background-color: #d9e0e7; padding: 6px; margin: 4px; border: 1px solid #8da1b4; border-radius: 5px; line-height: 60%\"><p style=\"margin-bottom: 0px\">Resource Medication &quot;9d7be868-8264-4d94-ad04-ef04ecc92e51&quot; </p></div><p><b>code</b>: Humalog Mix50 <span style=\"background: LightGoldenRodYellow; margin: 4px; border: 1px solid khaki\"> (marketingAuthorizationNumber#EU/1/96/007/035; phpid#0x073AF2E5B92AE19E8B67635AFFB3D6CA &quot;insulin lispro, 100 units/ml, suspension for injection&quot;; <a href=\"https://browser.ihtsdotools.org/\">SNOMED CT</a>#388454007 &quot;Product containing insulin lispro (medicinal product)&quot;; <a href=\"http://terminology.hl7.org/5.0.0/CodeSystem-v3-WC.html\">WHO ATC</a>#A10AD04 &quot;insulin lispro&quot;)</span></p><p><b>form</b>: Suspension for injection <span style=\"background: LightGoldenRodYellow; margin: 4px; border: 1px solid khaki\"> (standardterms.edqm.eu#11202000)</span></p><h3>Ingredients</h3><table class=\"grid\"><tr><td>-</td><td><b>Item[x]</b></td><td><b>Strength</b></td></tr><tr><td>*</td><td>insulin lispro <span style=\"background: LightGoldenRodYellow; margin: 4px; border: 1px solid khaki\"> (<a href=\"http://terminology.hl7.org/5.0.0/CodeSystem-UNII.html\">Unique Ingredient Identifier (UNII)</a>#GFX7QIS1II)</span></td><td>100 U<span style=\"background: LightGoldenRodYellow\"> (Details: UCUM code U = 'U')</span>/1 ml<span style=\"background: LightGoldenRodYellow\"> (Details: UCUM code ml = 'ml')</span></td></tr></table></div>"
      },
      "code" : {
        "coding" : [{
          "system" : "http://ema.europa.eu/fhir/marketingAuthorizationNumber",
          "code" : "EU/1/96/007/035",
          "display" : "Humalog Mix50"
        },
        {
          "system" : "https://www.who-umc.org/phpid",
          "code" : "0x073AF2E5B92AE19E8B67635AFFB3D6CA",
          "display" : "insulin lispro, 100 units/ml, suspension for injection"
        },
        {
          "system" : "http://snomed.info/sct",
          "code" : "388454007",
          "display" : "Product containing insulin lispro (medicinal product)"
        },
        {
          "system" : "http://www.whocc.no/atc",
          "code" : "A10AD04",
          "display" : "insulin lispro"
        }]
      },
      "form" : {
        "coding" : [{
          "system" : "http://standardterms.edqm.eu",
          "code" : "11202000",
          "display" : "Suspension for injection"
        }]
      },
      "ingredient" : [{
        "itemCodeableConcept" : {
          "coding" : [{
            "system" : "http://fdasis.nlm.nih.gov",
            "code" : "GFX7QIS1II",
            "display" : "insulin lispro"
          }],
          "text" : "insulin lispro"
        },
        "strength" : {
          "numerator" : {
            "value" : 100,
            "system" : "http://unitsofmeasure.org",
            "code" : "U"
          },
          "denominator" : {
            "value" : 1,
            "system" : "http://unitsofmeasure.org",
            "code" : "ml"
          }
        }
      }]
    }
  },
  {
    "fullUrl" : "fdb5c97f-0a46-41ba-bc34-2efd2ef2f7et",
    "resource" : {
      "resourceType" : "Medication",
      "id" : "fdb5c97f-0a46-41ba-bc34-2efd2ef2f7et",
      "text" : {
        "status" : "generated",
        "div" : "<div xmlns=\"http://www.w3.org/1999/xhtml\"><p><b>Generated Narrative: Medication</b><a name=\"fdb5c97f-0a46-41ba-bc34-2efd2ef2f7et\"> </a></p><div style=\"display: inline-block; background-color: #d9e0e7; padding: 6px; margin: 4px; border: 1px solid #8da1b4; border-radius: 5px; line-height: 60%\"><p style=\"margin-bottom: 0px\">Resource Medication &quot;fdb5c97f-0a46-41ba-bc34-2efd2ef2f7et&quot; </p></div><p><b>code</b>: Monuril <span style=\"background: LightGoldenRodYellow; margin: 4px; border: 1px solid khaki\"> (marketingAuthorizationNumber#PL31654/0006; phpid#0xE857DA811B4A6F3BD57810C45D2EA1ED &quot;Fosfomycin, 3g, Granules for oral solution&quot;; <a href=\"http://terminology.hl7.org/5.0.0/CodeSystem-v3-WC.html\">WHO ATC</a>#J01XX01 &quot;fosfomycin&quot;)</span></p><p><b>form</b>: Granules for oral solution <span style=\"background: LightGoldenRodYellow; margin: 4px; border: 1px solid khaki\"> (standardterms.edqm.eu#10112000)</span></p><h3>Ingredients</h3><table class=\"grid\"><tr><td>-</td><td><b>Item[x]</b></td><td><b>Strength</b></td></tr><tr><td>*</td><td>FOSFOMYCIN TROMETAMOL <span style=\"background: LightGoldenRodYellow; margin: 4px; border: 1px solid khaki\"> (<a href=\"http://terminology.hl7.org/5.0.0/CodeSystem-UNII.html\">Unique Ingredient Identifier (UNII)</a>#7FXW6U30GY &quot;FOSFOMYCIN TROMETHAMINE&quot;)</span></td><td>5.631 g<span style=\"background: LightGoldenRodYellow\"> (Details: UCUM code g = 'g')</span>/1 {sachet}<span style=\"background: LightGoldenRodYellow\"> (Details: UCUM code {sachet} = '{sachet}')</span></td></tr></table></div>"
      },
      "code" : {
        "coding" : [{
          "system" : "http://ema.europa.eu/fhir/marketingAuthorizationNumber",
          "code" : "PL31654/0006",
          "display" : "Monuril"
        },
        {
          "system" : "https://www.who-umc.org/phpid",
          "code" : "0xE857DA811B4A6F3BD57810C45D2EA1ED",
          "display" : "Fosfomycin, 3g, Granules for oral solution"
        },
        {
          "system" : "http://www.whocc.no/atc",
          "code" : "J01XX01",
          "display" : "fosfomycin"
        }]
      },
      "form" : {
        "coding" : [{
          "system" : "http://standardterms.edqm.eu",
          "code" : "10112000",
          "display" : "Granules for oral solution"
        }]
      },
      "ingredient" : [{
        "itemCodeableConcept" : {
          "coding" : [{
            "system" : "http://fdasis.nlm.nih.gov",
            "code" : "7FXW6U30GY",
            "display" : "FOSFOMYCIN TROMETHAMINE"
          }],
          "text" : "FOSFOMYCIN TROMETAMOL"
        },
        "strength" : {
          "numerator" : {
            "value" : 5.631,
            "system" : "http://unitsofmeasure.org",
            "code" : "g"
          },
          "denominator" : {
            "value" : 1,
            "system" : "http://unitsofmeasure.org",
            "code" : "{sachet}"
          }
        }
      }]
    }
  },
  {
    "fullUrl" : "fdb5c97f-0a46-41ba-bc34-2efd2ef2f7eu",
    "resource" : {
      "resourceType" : "Medication",
      "id" : "fdb5c97f-0a46-41ba-bc34-2efd2ef2f7eu",
      "text" : {
        "status" : "generated",
        "div" : "<div xmlns=\"http://www.w3.org/1999/xhtml\"><p><b>Generated Narrative: Medication</b><a name=\"fdb5c97f-0a46-41ba-bc34-2efd2ef2f7eu\"> </a></p><div style=\"display: inline-block; background-color: #d9e0e7; padding: 6px; margin: 4px; border: 1px solid #8da1b4; border-radius: 5px; line-height: 60%\"><p style=\"margin-bottom: 0px\">Resource Medication &quot;fdb5c97f-0a46-41ba-bc34-2efd2ef2f7eu&quot; </p></div><p><b>code</b>: Boots Decongestant 0.05% w/v Nasal spray <span style=\"background: LightGoldenRodYellow; margin: 4px; border: 1px solid khaki\"> (man#16028/0049; phpid#0xF79CABF272B6A7EEF104DDDA44E82716 &quot;Oxymetazoline hydrochloride, 0.5 mg/ 1 ml, Nasal spray, solution&quot;; <a href=\"http://terminology.hl7.org/5.0.0/CodeSystem-v3-WC.html\">WHO ATC</a>#R01AA05 &quot;oxymetazoline&quot;)</span></p><p><b>form</b>: Nasal spray, solution <span style=\"background: LightGoldenRodYellow; margin: 4px; border: 1px solid khaki\"> ()</span></p><h3>Ingredients</h3><table class=\"grid\"><tr><td>-</td><td><b>Item[x]</b></td><td><b>Strength</b></td></tr><tr><td>*</td><td>oxymetazoline hydrochloride <span style=\"background: LightGoldenRodYellow; margin: 4px; border: 1px solid khaki\"> (<a href=\"http://terminology.hl7.org/5.0.0/CodeSystem-UNII.html\">Unique Ingredient Identifier (UNII)</a>#K89MJ0S5VY)</span></td><td>0.05 mg<span style=\"background: LightGoldenRodYellow\"> (Details: UCUM code mg = 'mg')</span>/1 ml<span style=\"background: LightGoldenRodYellow\"> (Details: UCUM code ml = 'ml')</span></td></tr></table></div>"
      },
      "code" : {
        "coding" : [{
          "system" : "https://www.gravitatehealth.eu/sid/man",
          "code" : "16028/0049",
          "display" : "Boots Decongestant 0.05% w/v Nasal spray"
        },
        {
          "system" : "https://www.who-umc.org/phpid",
          "code" : "0xF79CABF272B6A7EEF104DDDA44E82716",
          "display" : "Oxymetazoline hydrochloride, 0.5 mg/ 1 ml, Nasal spray, solution"
        },
        {
          "system" : "http://www.whocc.no/atc",
          "code" : "R01AA05",
          "display" : "oxymetazoline"
        }]
      },
      "form" : {
        "text" : "Nasal spray, solution"
      },
      "ingredient" : [{
        "itemCodeableConcept" : {
          "coding" : [{
            "system" : "http://fdasis.nlm.nih.gov",
            "code" : "K89MJ0S5VY",
            "display" : "oxymetazoline hydrochloride"
          }],
          "text" : "oxymetazoline hydrochloride"
        },
        "strength" : {
          "numerator" : {
            "value" : 0.05,
            "system" : "http://unitsofmeasure.org",
            "code" : "mg"
          },
          "denominator" : {
            "value" : 1,
            "system" : "http://unitsofmeasure.org",
            "code" : "ml"
          }
        }
      }]
    }
  }]
}