<?xml version="1.0" encoding="UTF-8"?>

<Bundle xmlns="http://hl7.org/fhir">
  <id value="gravitate-Pedro"/>
  <identifier>
    <system value="https://www.gravitatehealth.eu/sid/doc"/>
    <value value="Pedro-ips-1"/>
  </identifier>
  <type value="document"/>
  <timestamp value="2021-04-18T09:22:00+02:00"/>
  <entry>
    <fullUrl value="urn:uuid:5702fd1d-dd26-402e-a7c0-7629a5d9bba1"/>
    <resource>
      <Composition>
        <id value="gravitate-Pedro"/>
        <text>
          <status value="generated"/><div xmlns="http://www.w3.org/1999/xhtml"><p><b>Generated Narrative: Composition</b><a name="gravitate-Pedro"> </a></p><div style="display: inline-block; background-color: #d9e0e7; padding: 6px; margin: 4px; border: 1px solid #8da1b4; border-radius: 5px; line-height: 60%"><p style="margin-bottom: 0px">Resource Composition &quot;gravitate-Pedro&quot; </p></div><p><b>status</b>: final</p><p><b>type</b>: Patient summary Document <span style="background: LightGoldenRodYellow; margin: 4px; border: 1px solid khaki"> (<a href="https://loinc.org/">LOINC</a>#60591-5)</span></p><p><b>date</b>: 2018-07-10 15:22:00+0200</p><p><b>author</b>: <a href="#Practitioner_pedro-pract">See above (Practitioner/pedro-pract: Dr. Anna Karlsson)</a></p><p><b>title</b>: Patient Summary (Pedro Gravitate)</p><p><b>confidentiality</b>: N</p></div>
        </text>
        <status value="final"/>
        <type>
          <coding>
            <system value="http://loinc.org"/>
            <code value="60591-5"/>
            <display value="Patient summary Document"/>
          </coding>
        </type>
        <subject>
          <reference value="Patient/pedro-patient"/>
          <display value="Pedro Gravitate"/>
        </subject>
        <date value="2018-07-10T15:22:00+02:00"/>
        <author>
          <reference value="Practitioner/pedro-pract"/>
          <display value="Dr. Anna Karlsson"/>
        </author>
        <title value="Patient Summary (Pedro Gravitate)"/>
        <confidentiality value="N"/>
        <section>
          <title value="Problem List"/>
          <code>
            <coding>
              <system value="http://loinc.org"/>
              <code value="11450-4"/>
              <display value="Problem list Reported"/>
            </coding>
          </code>
          <text>
            <status value="generated"/><div xmlns="http://www.w3.org/1999/xhtml"><ul><li>HIV</li><li>Depression</li><li>IBS</li></ul></div>
          </text>
          <entry>
            <reference value="Condition/pedro-cond-1"/>
            <display value="HIV"/>
          </entry>
          <entry>
            <reference value="Condition/pedro-cond-2"/>
            <display value="Depression"/>
          </entry>
          <entry>
            <reference value="Condition/pedro-cond-3"/>
            <display value="IBS"/>
          </entry>
        </section>
        <section>
          <title value="Medication Summary"/>
          <code>
            <coding>
              <system value="http://loinc.org"/>
              <code value="10160-0"/>
              <display value="Hx of Medication use"/>
            </coding>
          </code>
          <text>
            <status value="generated"/><div xmlns="http://www.w3.org/1999/xhtml"><table><thead><tr><th>Brand Name</th><th>MAN</th><th>Active Substance</th><th>Common Name</th><th>ATC</th><th>Strength</th><th>Dose Form</th><th>RoA</th></tr></thead><tbody><tr><td>Humalog Mix50 Insulin KwikPen, 3ml pre-fill</td><td>EU/1/96/007/035</td><td>insulin lispro (GFX7QIS1II)</td><td>insulin lispro</td><td>A10AD04</td><td>100 U/ml</td><td>Suspension for injection</td><td>Subcutaneous use</td></tr><tr><td>Monuril 3 g granules for oral solution</td><td>PL31654/0006</td><td>FOSFOMYCIN (2N81MY12TE)</td><td>fosfomycin</td><td>J01XX01</td><td>3 g (as trometamol: 5.631g/sachet)</td><td>Granules for oral solution</td><td>Oral use</td></tr></tbody></table></div>
          </text>
          <entry>
            <reference value="MedicationStatement/pedro-med-stat-1"/>
            <display value="Dovato lamivudine and dolutegravir, 300 mg/50 mg"/>
          </entry>
          <entry>
            <reference value="MedicationStatement/pedro-med-stat-2"/>
            <display value="Mirtazapine 15 mg"/>
          </entry>
          <entry>
            <reference value="MedicationStatement/pedro-med-stat-3"/>
            <display value="Calcium carbonate 500 mg"/>
          </entry>
          <entry>
            <reference value="MedicationStatement/pedro-med-stat-4"/>
            <display value="Cinitrapide 1 mg"/>
          </entry>
          <entry>
            <reference value="MedicationStatement/pedro-med-stat-5"/>
            <display value="Collagen and magnesium supplements"/>
          </entry>
          <entry>
            <reference value="MedicationStatement/pedro-med-stat-6"/>
            <display value="Vitamin C supplements"/>
          </entry>
          <entry>
            <reference value="MedicationStatement/pedro-med-stat-7"/>
            <display value="Protein supplements"/>
          </entry>
        </section>
      </Composition>
    </resource>
  </entry>
  <entry>
    <fullUrl value="urn:uuid:pedro-patient"/>
    <resource>
      <Patient>
        <id value="pedro-patient"/>
        <text>
          <status value="generated"/><div xmlns="http://www.w3.org/1999/xhtml">Age: 42 years. I live alone, single. Electronics store salesperson Smoker since the age of 20 Interests: cultural events and concerts. I enjoy mountain activities, skiing in winter and hiking the rest of the year. Health Conditions HIV (diagnosed with 38 years) Depression</div>
        </text>
        <extension url="http://hl7.org/fhir/StructureDefinition/patient-citizenship">
          <extension url="code">
            <valueCodeableConcept>
              <coding>
                <system value="urn:iso:std:iso:3166"/>
                <code value="ES"/>
                <display value="Spain"/>
              </coding>
            </valueCodeableConcept>
          </extension>
        </extension>
        <identifier>
          <system value="https://www.gravitatehealth.eu/sid/doc"/>
          <value value="Pedro-1"/>
        </identifier>
        <active value="true"/>
        <name>
          <family value="Gravitate"/>
          <given value="Pedro"/>
        </name>
        <gender value="male"/>
        <birthDate value="1980-10-05"/>
      </Patient>
    </resource>
  </entry>
  <entry>
    <fullUrl value="urn:uuid:pedro-pract"/>
    <resource>
      <Practitioner>
        <id value="pedro-pract"/>
        <text>
          <status value="generated"/><div xmlns="http://www.w3.org/1999/xhtml">Dr. Xavier García</div>
        </text>
        <name>
          <family value="García"/>
          <given value="Xavier"/>
          <prefix value="Dr."/>
        </name>
      </Practitioner>
    </resource>
  </entry>
  <entry>
    <fullUrl value="urn:uuid:pedro-cond-1"/>
    <resource>
      <Condition>
        <id value="pedro-cond-1"/>
        <text>
          <status value="generated"/><div xmlns="http://www.w3.org/1999/xhtml">Depression</div>
        </text>
        <clinicalStatus>
          <coding>
            <system value="http://terminology.hl7.org/CodeSystem/condition-clinical"/>
            <code value="active"/>
          </coding>
        </clinicalStatus>
        <code>
          <coding>
            <system value="http://snomed.info/sct"/>
            <code value="35489007"/>
            <display value="Depressive disorder (disorder)"/>
          </coding>
          <text value="Depressive disorder (disorder)"/>
        </code>
        <subject>
          <reference value="Patient/pedro-patient"/>
          <display value="Pedro Gravitate"/>
        </subject>
      </Condition>
    </resource>
  </entry>
  <entry>
    <fullUrl value="urn:uuid:pedro-cond-2"/>
    <resource>
      <Condition>
        <id value="pedro-cond-2"/>
        <text>
          <status value="generated"/><div xmlns="http://www.w3.org/1999/xhtml">HIV (2018)</div>
        </text>
        <clinicalStatus>
          <coding>
            <system value="http://terminology.hl7.org/CodeSystem/condition-clinical"/>
            <code value="active"/>
          </coding>
        </clinicalStatus>
        <code>
          <coding>
            <system value="http://snomed.info/sct"/>
            <code value="86406008"/>
            <display value="Human immunodeficiency virus infection"/>
          </coding>
          <text value="Human immunodeficiency virus infection"/>
        </code>
        <subject>
          <reference value="Patient/pedro-patient"/>
          <display value="Pedro Gravitate"/>
        </subject>
        <onsetDateTime value="2018"/>
        <asserter>
          <reference value="Practitioner/pedro-pract"/>
          <display value="Dr. Xavier García"/>
        </asserter>
      </Condition>
    </resource>
  </entry>
  <entry>
    <fullUrl value="urn:uuid:pedro-cond-3"/>
    <resource>
      <Condition>
        <id value="pedro-cond-3"/>
        <text>
          <status value="generated"/><div xmlns="http://www.w3.org/1999/xhtml">IBS</div>
        </text>
        <clinicalStatus>
          <coding>
            <system value="http://terminology.hl7.org/CodeSystem/condition-clinical"/>
            <code value="active"/>
          </coding>
        </clinicalStatus>
        <code>
          <coding>
            <system value="http://snomed.info/sct"/>
            <code value="10743008"/>
            <display value="Irritable bowel syndrome"/>
          </coding>
          <text value="Irritable bowel syndrome"/>
        </code>
        <subject>
          <reference value="Patient/pedro-patient"/>
          <display value="Pedro Gravitate"/>
        </subject>
      </Condition>
    </resource>
  </entry>
  <entry>
    <fullUrl value="urn:uuid:pedro-med-stat-1"/>
    <resource>
      <MedicationStatement>
        <id value="pedro-med-stat-1"/>
        <text>
          <status value="generated"/><div xmlns="http://www.w3.org/1999/xhtml"><p><b>Generated Narrative: MedicationStatement</b><a name="pedro-med-stat-1"> </a></p><div style="display: inline-block; background-color: #d9e0e7; padding: 6px; margin: 4px; border: 1px solid #8da1b4; border-radius: 5px; line-height: 60%"><p style="margin-bottom: 0px">Resource MedicationStatement &quot;pedro-med-stat-1&quot; </p></div><p><b>status</b>: active</p><p><b>medication</b>: <a href="#Medication_9d7be868-8264-4d94-ad04-ef04ecc92e52">See above (urn:uuid:9d7be868-8264-4d94-ad04-ef04ecc92e52: Dovato 50 mg/300 mg (Dolutegravir/ Lamivudine) tablets)</a></p><p><b>subject</b>: <a href="#Patient_pedro-patient">See above (Patient/pedro-patient: Pedro Gravitate)</a></p><h3>Dosages</h3><table class="grid"><tr><td>-</td><td><b>Route</b></td></tr><tr><td>*</td><td>Oral use <span style="background: LightGoldenRodYellow; margin: 4px; border: 1px solid khaki"> (standardterms.edqm.eu#20053000)</span></td></tr></table></div>
        </text>
        <status value="active"/>
        <medicationReference>
          <reference value="urn:uuid:9d7be868-8264-4d94-ad04-ef04ecc92e52"/>
          <display value="Dovato 50 mg/300 mg (Dolutegravir/ Lamivudine) tablets"/>
        </medicationReference>
        <subject>
          <reference value="Patient/pedro-patient"/>
          <display value="Pedro Gravitate"/>
        </subject>
        <dosage>
          <route>
            <coding>
              <system value="http://standardterms.edqm.eu"/>
              <code value="20053000"/>
              <display value="Oral use"/>
            </coding>
          </route>
        </dosage>
      </MedicationStatement>
    </resource>
  </entry>
  <entry>
    <fullUrl value="urn:uuid:pedro-med-stat-2"/>
    <resource>
      <MedicationStatement>
        <id value="pedro-med-stat-2"/>
        <text>
          <status value="generated"/><div xmlns="http://www.w3.org/1999/xhtml"><p><b>Generated Narrative: MedicationStatement</b><a name="pedro-med-stat-2"> </a></p><div style="display: inline-block; background-color: #d9e0e7; padding: 6px; margin: 4px; border: 1px solid #8da1b4; border-radius: 5px; line-height: 60%"><p style="margin-bottom: 0px">Resource MedicationStatement &quot;pedro-med-stat-2&quot; </p></div><p><b>status</b>: active</p><p><b>medication</b>: <a href="#Medication_fdb5c97f-0a46-41ba-bc34-2efd2ef2f7e4">See above (Medication/fdb5c97f-0a46-41ba-bc34-2efd2ef2f7e4: Monuril 3g granules for oral solution)</a></p><p><b>subject</b>: <a href="#Patient_pedro-patient">See above (Patient/pedro-patient: Pedro Gravitate)</a></p><h3>Dosages</h3><table class="grid"><tr><td>-</td><td><b>Route</b></td></tr><tr><td>*</td><td>Oral use <span style="background: LightGoldenRodYellow; margin: 4px; border: 1px solid khaki"> (standardterms.edqm.eu#20053000)</span></td></tr></table></div>
        </text>
        <status value="active"/>
        <medicationReference>
          <reference value="Medication/fdb5c97f-0a46-41ba-bc34-2efd2ef2f7e4"/>
          <display value="Monuril 3g granules for oral solution"/>
        </medicationReference>
        <subject>
          <reference value="Patient/pedro-patient"/>
          <display value="Pedro Gravitate"/>
        </subject>
        <dosage>
          <route>
            <coding>
              <system value="http://standardterms.edqm.eu"/>
              <code value="20053000"/>
              <display value="Oral use"/>
            </coding>
          </route>
        </dosage>
      </MedicationStatement>
    </resource>
  </entry>
  <entry>
    <fullUrl value="urn:uuid:pedro-med-stat-3"/>
    <resource>
      <MedicationStatement>
        <id value="pedro-med-stat-3"/>
        <text>
          <status value="generated"/><div xmlns="http://www.w3.org/1999/xhtml"><p><b>Generated Narrative: MedicationStatement</b><a name="pedro-med-stat-3"> </a></p><div style="display: inline-block; background-color: #d9e0e7; padding: 6px; margin: 4px; border: 1px solid #8da1b4; border-radius: 5px; line-height: 60%"><p style="margin-bottom: 0px">Resource MedicationStatement &quot;pedro-med-stat-3&quot; </p></div><p><b>status</b>: active</p><p><b>medication</b>: <a href="#Medication_6f4151e9-91f6-4f1e-adc3-fb94dda7785g">See above (urn:uuid:6f4151e9-91f6-4f1e-adc3-fb94dda7785g: Oxymetazoline hydrochloride  0.05 mg / 1 ml Spray)</a></p><p><b>subject</b>: <a href="#Patient_pedro-patient">See above (Patient/pedro-patient: Pedro Gravitate)</a></p><h3>Dosages</h3><table class="grid"><tr><td>-</td><td><b>Route</b></td></tr><tr><td>*</td><td>Oral use <span style="background: LightGoldenRodYellow; margin: 4px; border: 1px solid khaki"> (standardterms.edqm.eu#20053000)</span></td></tr></table></div>
        </text>
        <status value="active"/>
        <medicationReference>
          <reference value="urn:uuid:6f4151e9-91f6-4f1e-adc3-fb94dda7785g"/>
          <display value="Oxymetazoline hydrochloride  0.05 mg / 1 ml Spray"/>
        </medicationReference>
        <subject>
          <reference value="Patient/pedro-patient"/>
          <display value="Pedro Gravitate"/>
        </subject>
        <dosage>
          <route>
            <coding>
              <system value="http://standardterms.edqm.eu"/>
              <code value="20053000"/>
              <display value="Oral use"/>
            </coding>
          </route>
        </dosage>
      </MedicationStatement>
    </resource>
  </entry>
  <entry>
    <fullUrl value="urn:uuid:pedro-med-stat-4"/>
    <resource>
      <MedicationStatement>
        <id value="pedro-med-stat-4"/>
        <text>
          <status value="generated"/><div xmlns="http://www.w3.org/1999/xhtml"><p><b>Generated Narrative: MedicationStatement</b><a name="pedro-med-stat-4"> </a></p><div style="display: inline-block; background-color: #d9e0e7; padding: 6px; margin: 4px; border: 1px solid #8da1b4; border-radius: 5px; line-height: 60%"><p style="margin-bottom: 0px">Resource MedicationStatement &quot;pedro-med-stat-4&quot; </p></div><p><b>status</b>: active</p><p><b>medication</b>: <a href="#Medication_6f4151e9-91f6-4f1e-adc3-fb94dda7785g">See above (urn:uuid:6f4151e9-91f6-4f1e-adc3-fb94dda7785g: Oxymetazoline hydrochloride  0.05 mg / 1 ml Spray)</a></p><p><b>subject</b>: <a href="#Patient_pedro-patient">See above (Patient/pedro-patient: Pedro Gravitate)</a></p><h3>Dosages</h3><table class="grid"><tr><td>-</td><td><b>Route</b></td></tr><tr><td>*</td><td>Oral use <span style="background: LightGoldenRodYellow; margin: 4px; border: 1px solid khaki"> (standardterms.edqm.eu#20053000)</span></td></tr></table></div>
        </text>
        <status value="active"/>
        <medicationReference>
          <reference value="urn:uuid:6f4151e9-91f6-4f1e-adc3-fb94dda7785g"/>
          <display value="Oxymetazoline hydrochloride  0.05 mg / 1 ml Spray"/>
        </medicationReference>
        <subject>
          <reference value="Patient/pedro-patient"/>
          <display value="Pedro Gravitate"/>
        </subject>
        <dosage>
          <route>
            <coding>
              <system value="http://standardterms.edqm.eu"/>
              <code value="20053000"/>
              <display value="Oral use"/>
            </coding>
          </route>
        </dosage>
      </MedicationStatement>
    </resource>
  </entry>
  <entry>
    <fullUrl value="urn:uuid:pedro-med-stat-5"/>
    <resource>
      <MedicationStatement>
        <id value="pedro-med-stat-5"/>
        <text>
          <status value="generated"/><div xmlns="http://www.w3.org/1999/xhtml"><p><b>Generated Narrative: MedicationStatement</b><a name="pedro-med-stat-5"> </a></p><div style="display: inline-block; background-color: #d9e0e7; padding: 6px; margin: 4px; border: 1px solid #8da1b4; border-radius: 5px; line-height: 60%"><p style="margin-bottom: 0px">Resource MedicationStatement &quot;pedro-med-stat-5&quot; </p></div><p><b>status</b>: active</p><p><b>medication</b>: <a href="#Medication_6f4151e9-91f6-4f1e-adc3-fb94dda7785g">See above (Medication/6f4151e9-91f6-4f1e-adc3-fb94dda7785g: Oxymetazoline hydrochloride  0.05 mg / 1 ml Spray)</a></p><p><b>subject</b>: <a href="#Patient_pedro-patient">See above (Patient/pedro-patient: Pedro Gravitate)</a></p><h3>Dosages</h3><table class="grid"><tr><td>-</td><td><b>Route</b></td></tr><tr><td>*</td><td>Oral use <span style="background: LightGoldenRodYellow; margin: 4px; border: 1px solid khaki"> (standardterms.edqm.eu#20053000)</span></td></tr></table></div>
        </text>
        <status value="active"/>
        <medicationReference>
          <reference value="Medication/6f4151e9-91f6-4f1e-adc3-fb94dda7785g"/>
          <display value="Oxymetazoline hydrochloride  0.05 mg / 1 ml Spray"/>
        </medicationReference>
        <subject>
          <reference value="Patient/pedro-patient"/>
          <display value="Pedro Gravitate"/>
        </subject>
        <dosage>
          <route>
            <coding>
              <system value="http://standardterms.edqm.eu"/>
              <code value="20053000"/>
              <display value="Oral use"/>
            </coding>
          </route>
        </dosage>
      </MedicationStatement>
    </resource>
  </entry>
  <entry>
    <fullUrl value="urn:uuid:pedro-med-stat-6"/>
    <resource>
      <MedicationStatement>
        <id value="pedro-med-stat-6"/>
        <text>
          <status value="generated"/><div xmlns="http://www.w3.org/1999/xhtml"><p><b>Generated Narrative: MedicationStatement</b><a name="pedro-med-stat-6"> </a></p><div style="display: inline-block; background-color: #d9e0e7; padding: 6px; margin: 4px; border: 1px solid #8da1b4; border-radius: 5px; line-height: 60%"><p style="margin-bottom: 0px">Resource MedicationStatement &quot;pedro-med-stat-6&quot; </p></div><p><b>status</b>: active</p><p><b>medication</b>: <a href="#Medication_6f4151e9-91f6-4f1e-adc3-fb94dda7785g">See above (Medication/6f4151e9-91f6-4f1e-adc3-fb94dda7785g: Oxymetazoline hydrochloride  0.05 mg / 1 ml Spray)</a></p><p><b>subject</b>: <a href="#Patient_pedro-patient">See above (Patient/pedro-patient: Pedro Gravitate)</a></p><h3>Dosages</h3><table class="grid"><tr><td>-</td><td><b>Route</b></td></tr><tr><td>*</td><td>Oral use <span style="background: LightGoldenRodYellow; margin: 4px; border: 1px solid khaki"> (standardterms.edqm.eu#20053000)</span></td></tr></table></div>
        </text>
        <status value="active"/>
        <medicationReference>
          <reference value="Medication/6f4151e9-91f6-4f1e-adc3-fb94dda7785g"/>
          <display value="Oxymetazoline hydrochloride  0.05 mg / 1 ml Spray"/>
        </medicationReference>
        <subject>
          <reference value="Patient/pedro-patient"/>
          <display value="Pedro Gravitate"/>
        </subject>
        <dosage>
          <route>
            <coding>
              <system value="http://standardterms.edqm.eu"/>
              <code value="20053000"/>
              <display value="Oral use"/>
            </coding>
          </route>
        </dosage>
      </MedicationStatement>
    </resource>
  </entry>
  <entry>
    <fullUrl value="urn:uuid:pedro-med-stat-7"/>
    <resource>
      <MedicationStatement>
        <id value="pedro-med-stat-7"/>
        <text>
          <status value="generated"/><div xmlns="http://www.w3.org/1999/xhtml"><p><b>Generated Narrative: MedicationStatement</b><a name="pedro-med-stat-7"> </a></p><div style="display: inline-block; background-color: #d9e0e7; padding: 6px; margin: 4px; border: 1px solid #8da1b4; border-radius: 5px; line-height: 60%"><p style="margin-bottom: 0px">Resource MedicationStatement &quot;pedro-med-stat-7&quot; </p></div><p><b>status</b>: active</p><p><b>medication</b>: <a href="#Medication_6f4151e9-91f6-4f1e-adc3-fb94dda7785g">See above (Medication/6f4151e9-91f6-4f1e-adc3-fb94dda7785g: Oxymetazoline hydrochloride  0.05 mg / 1 ml Spray)</a></p><p><b>subject</b>: <a href="#Patient_pedro-patient">See above (Patient/pedro-patient: Pedro Gravitate)</a></p><h3>Dosages</h3><table class="grid"><tr><td>-</td><td><b>Route</b></td></tr><tr><td>*</td><td>Oral use <span style="background: LightGoldenRodYellow; margin: 4px; border: 1px solid khaki"> (standardterms.edqm.eu#20053000)</span></td></tr></table></div>
        </text>
        <status value="active"/>
        <medicationReference>
          <reference value="Medication/6f4151e9-91f6-4f1e-adc3-fb94dda7785g"/>
          <display value="Oxymetazoline hydrochloride  0.05 mg / 1 ml Spray"/>
        </medicationReference>
        <subject>
          <reference value="Patient/pedro-patient"/>
          <display value="Pedro Gravitate"/>
        </subject>
        <dosage>
          <route>
            <coding>
              <system value="http://standardterms.edqm.eu"/>
              <code value="20053000"/>
              <display value="Oral use"/>
            </coding>
          </route>
        </dosage>
      </MedicationStatement>
    </resource>
  </entry>
  <entry>
    <fullUrl value="urn:uuid:9d7be868-8264-4d94-ad04-ef04ecc92e52"/>
    <resource>
      <Medication>
        <id value="9d7be868-8264-4d94-ad04-ef04ecc92e52"/>
        <text>
          <status value="generated"/><div xmlns="http://www.w3.org/1999/xhtml"><p><b>Generated Narrative: Medication</b><a name="9d7be868-8264-4d94-ad04-ef04ecc92e52"> </a></p><div style="display: inline-block; background-color: #d9e0e7; padding: 6px; margin: 4px; border: 1px solid #8da1b4; border-radius: 5px; line-height: 60%"><p style="margin-bottom: 0px">Resource Medication &quot;9d7be868-8264-4d94-ad04-ef04ecc92e52&quot; </p></div><p><b>code</b>: Dovato 50 mg/300 mg 30 tablets <span style="background: LightGoldenRodYellow; margin: 4px; border: 1px solid khaki"> (marketingAuthorizationNumber#EU/1/19/1370/001; phpid#0x073AF2E5B92AE19E8B67635AFFB3D6CA &quot;lamivudine and dolutegravir, 300 mg/50 mg, tablets&quot;; SNOMED CT#13884911000001102 &quot;Dovato 50 mg/300 mg tablet&quot;; <a href="http://terminology.hl7.org/5.0.0/CodeSystem-v3-WC.html">WHO ATC</a>#J05AR25 &quot;lamivudine and dolutegravir&quot;)</span></p><p><b>form</b>: Coated tablet <span style="background: LightGoldenRodYellow; margin: 4px; border: 1px solid khaki"> (standardterms.edqm.eu#10220000)</span></p><blockquote><p><b>ingredient</b></p><p><b>item</b>: lamivudine <span style="background: LightGoldenRodYellow; margin: 4px; border: 1px solid khaki"> (<a href="http://terminology.hl7.org/5.0.0/CodeSystem-UNII.html">Unique Ingredient Identifier (UNII)</a>#2T8Q726O95)</span></p><p><b>strength</b>: 300 mg<span style="background: LightGoldenRodYellow"> (Details: UCUM code mg = 'mg')</span>/1 tablet<span style="background: LightGoldenRodYellow"> (Details: UCUM code tablet = 'tablet')</span></p></blockquote><blockquote><p><b>ingredient</b></p><p><b>item</b>: dolutegravir <span style="background: LightGoldenRodYellow; margin: 4px; border: 1px solid khaki"> (<a href="http://terminology.hl7.org/5.0.0/CodeSystem-UNII.html">Unique Ingredient Identifier (UNII)</a>#DKO1W9H7M1)</span></p><p><b>strength</b>: 50 mg<span style="background: LightGoldenRodYellow"> (Details: UCUM code mg = 'mg')</span>/1 tablet<span style="background: LightGoldenRodYellow"> (Details: UCUM code tablet = 'tablet')</span></p></blockquote></div>
        </text>
        <code>
          <coding>
            <system value="http://ema.europa.eu/fhir/marketingAuthorizationNumber"/>
            <code value="EU/1/19/1370/001"/>
            <display value="Dovato 50 mg/300 mg 30 tablets"/>
          </coding>
          <coding>
            <system value="https://www.who-umc.org/phpid"/>
            <code value="0x073AF2E5B92AE19E8B67635AFFB3D6CA"/>
            <display value="lamivudine and dolutegravir, 300 mg/50 mg, tablets"/>
          </coding>
          <coding>
            <system value="http://snomed.info/sct/83821000000107"/>
            <code value="13884911000001102"/>
            <display value="Dovato 50 mg/300 mg tablet"/>
          </coding>
          <coding>
            <system value="http://www.whocc.no/atc"/>
            <code value="J05AR25"/>
            <display value="lamivudine and dolutegravir"/>
          </coding>
        </code>
        <form>
          <coding>
            <system value="http://standardterms.edqm.eu"/>
            <code value="10220000"/>
            <display value="Coated tablet"/>
          </coding>
        </form>
        <ingredient>
          <itemCodeableConcept>
            <coding>
              <system value="http://fdasis.nlm.nih.gov"/>
              <code value="2T8Q726O95"/>
              <display value="lamivudine"/>
            </coding>
            <text value="lamivudine"/>
          </itemCodeableConcept>
          <strength>
            <numerator>
              <value value="300"/>
              <system value="http://unitsofmeasure.org"/>
              <code value="mg"/>
            </numerator>
            <denominator>
              <value value="1"/>
              <system value="http://unitsofmeasure.org"/>
              <code value="tablet"/>
            </denominator>
          </strength>
        </ingredient>
        <ingredient>
          <itemCodeableConcept>
            <coding>
              <system value="http://fdasis.nlm.nih.gov"/>
              <code value="DKO1W9H7M1"/>
              <display value="dolutegravir"/>
            </coding>
            <text value="dolutegravir"/>
          </itemCodeableConcept>
          <strength>
            <numerator>
              <value value="50"/>
              <system value="http://unitsofmeasure.org"/>
              <code value="mg"/>
            </numerator>
            <denominator>
              <value value="1"/>
              <system value="http://unitsofmeasure.org"/>
              <code value="tablet"/>
            </denominator>
          </strength>
        </ingredient>
      </Medication>
    </resource>
  </entry>
  <entry>
    <fullUrl value="urn:uuid:fdb5c97f-0a46-41ba-bc34-2efd2ef2f7e4"/>
    <resource>
      <Medication>
        <id value="fdb5c97f-0a46-41ba-bc34-2efd2ef2f7e4"/>
        <text>
          <status value="generated"/><div xmlns="http://www.w3.org/1999/xhtml"><p><b>Generated Narrative: Medication</b><a name="fdb5c97f-0a46-41ba-bc34-2efd2ef2f7e4"> </a></p><div style="display: inline-block; background-color: #d9e0e7; padding: 6px; margin: 4px; border: 1px solid #8da1b4; border-radius: 5px; line-height: 60%"><p style="margin-bottom: 0px">Resource Medication &quot;fdb5c97f-0a46-41ba-bc34-2efd2ef2f7e4&quot; </p></div><p><b>code</b>: mirtazapine <span style="background: LightGoldenRodYellow; margin: 4px; border: 1px solid khaki"> (marketingAuthorizationNumber#PL31654/0006; phpid#0xE857DA811B4A6F3BD57810C45D2EA1ED; <a href="http://terminology.hl7.org/5.0.0/CodeSystem-v3-WC.html">WHO ATC</a>#N06AX11)</span></p><p><b>form</b>: Coated tablet <span style="background: LightGoldenRodYellow; margin: 4px; border: 1px solid khaki"> (standardterms.edqm.eu#10220000)</span></p><h3>Ingredients</h3><table class="grid"><tr><td>-</td><td><b>Item[x]</b></td><td><b>Strength</b></td></tr><tr><td>*</td><td>Mirtazapine <span style="background: LightGoldenRodYellow; margin: 4px; border: 1px solid khaki"> (<a href="http://terminology.hl7.org/5.0.0/CodeSystem-UNII.html">Unique Ingredient Identifier (UNII)</a>#A051Q2099Q)</span></td><td>15 g<span style="background: LightGoldenRodYellow"> (Details: UCUM code g = 'g')</span>/1 tablet<span style="background: LightGoldenRodYellow"> (Details: UCUM code tablet = 'tablet')</span></td></tr></table></div>
        </text>
        <code>
          <coding>
            <system value="http://ema.europa.eu/fhir/marketingAuthorizationNumber"/>
            <code value="PL31654/0006"/>
          </coding>
          <coding>
            <system value="https://www.who-umc.org/phpid"/>
            <code value="0xE857DA811B4A6F3BD57810C45D2EA1ED"/>
          </coding>
          <coding>
            <system value="http://www.whocc.no/atc"/>
            <code value="N06AX11"/>
            <display value="mirtazapine"/>
          </coding>
        </code>
        <form>
          <coding>
            <system value="http://standardterms.edqm.eu"/>
            <code value="10220000"/>
            <display value="Coated tablet"/>
          </coding>
        </form>
        <ingredient>
          <itemCodeableConcept>
            <coding>
              <system value="http://fdasis.nlm.nih.gov"/>
              <code value="A051Q2099Q"/>
              <display value="Mirtazapine"/>
            </coding>
            <text value="Mirtazapine"/>
          </itemCodeableConcept>
          <strength>
            <numerator>
              <value value="15"/>
              <system value="http://unitsofmeasure.org"/>
              <code value="g"/>
            </numerator>
            <denominator>
              <value value="1"/>
              <system value="http://unitsofmeasure.org"/>
              <code value="tablet"/>
            </denominator>
          </strength>
        </ingredient>
      </Medication>
    </resource>
  </entry>
  <entry>
    <fullUrl value="urn:uuid:6f4151e9-91f6-4f1e-adc3-fb94dda7785g"/>
    <resource>
      <Medication>
        <id value="6f4151e9-91f6-4f1e-adc3-fb94dda7785g"/>
        <text>
          <status value="generated"/><div xmlns="http://www.w3.org/1999/xhtml"><p><b>Generated Narrative: Medication</b><a name="6f4151e9-91f6-4f1e-adc3-fb94dda7785g"> </a></p><div style="display: inline-block; background-color: #d9e0e7; padding: 6px; margin: 4px; border: 1px solid #8da1b4; border-radius: 5px; line-height: 60%"><p style="margin-bottom: 0px">Resource Medication &quot;6f4151e9-91f6-4f1e-adc3-fb94dda7785g&quot; </p></div><p><b>code</b>: Calcium carbonate 500 mg <span style="background: LightGoldenRodYellow; margin: 4px; border: 1px solid khaki"> (man#16028/0049; phpid#0xF79CABF272B6A7EEF104DDDA44E82716; <a href="http://terminology.hl7.org/5.0.0/CodeSystem-v3-WC.html">WHO ATC</a>#A12AA04 &quot;calcium carbonate&quot;)</span></p><p><b>form</b>: Chewable tablet <span style="background: LightGoldenRodYellow; margin: 4px; border: 1px solid khaki"> (standardterms.edqm.eu#10228000)</span></p><h3>Ingredients</h3><table class="grid"><tr><td>-</td><td><b>Item[x]</b></td><td><b>Strength</b></td></tr><tr><td>*</td><td>calcium carbonate <span style="background: LightGoldenRodYellow; margin: 4px; border: 1px solid khaki"> (<a href="http://terminology.hl7.org/5.0.0/CodeSystem-UNII.html">Unique Ingredient Identifier (UNII)</a>#H0G9379FGK &quot;Calcium carbonate&quot;)</span></td><td>500 mg<span style="background: LightGoldenRodYellow"> (Details: UCUM code mg = 'mg')</span>/1 tablet<span style="background: LightGoldenRodYellow"> (Details: UCUM code tablet = 'tablet')</span></td></tr></table></div>
        </text>
        <code>
          <coding>
            <system value="https://www.gravitatehealth.eu/sid/man"/>
            <code value="16028/0049"/>
            <display value="Calcium carbonate 500 mg"/>
          </coding>
          <coding>
            <system value="https://www.who-umc.org/phpid"/>
            <code value="0xF79CABF272B6A7EEF104DDDA44E82716"/>
            <display value="Calcium carbonate 500 mg"/>
          </coding>
          <coding>
            <system value="http://www.whocc.no/atc"/>
            <code value="A12AA04"/>
            <display value="calcium carbonate"/>
          </coding>
        </code>
        <form>
          <coding>
            <system value="http://standardterms.edqm.eu"/>
            <code value="10228000"/>
            <display value="Chewable tablet"/>
          </coding>
          <text value="Chewable tablet"/>
        </form>
        <ingredient>
          <itemCodeableConcept>
            <coding>
              <system value="http://fdasis.nlm.nih.gov"/>
              <code value="H0G9379FGK"/>
              <display value="Calcium carbonate"/>
            </coding>
            <text value="calcium carbonate"/>
          </itemCodeableConcept>
          <strength>
            <numerator>
              <value value="500"/>
              <system value="http://unitsofmeasure.org"/>
              <code value="mg"/>
            </numerator>
            <denominator>
              <value value="1"/>
              <system value="http://unitsofmeasure.org"/>
              <code value="tablet"/>
            </denominator>
          </strength>
        </ingredient>
      </Medication>
    </resource>
  </entry>
  <entry>
    <fullUrl value="urn:uuid:6f4151e9-91f6-4f1e-adc3-fb94dda77854"/>
    <resource>
      <Medication>
        <id value="6f4151e9-91f6-4f1e-adc3-fb94dda77854"/>
        <text>
          <status value="generated"/><div xmlns="http://www.w3.org/1999/xhtml"><p><b>Generated Narrative: Medication</b><a name="6f4151e9-91f6-4f1e-adc3-fb94dda77854"> </a></p><div style="display: inline-block; background-color: #d9e0e7; padding: 6px; margin: 4px; border: 1px solid #8da1b4; border-radius: 5px; line-height: 60%"><p style="margin-bottom: 0px">Resource Medication &quot;6f4151e9-91f6-4f1e-adc3-fb94dda77854&quot; </p></div><p><b>code</b>: Boots Decongestant 0.05% w/v Nasal spray <span style="background: LightGoldenRodYellow; margin: 4px; border: 1px solid khaki"> (man#16028/0049; phpid#0xF79CABF272B6A7EEF104DDDA44E82716 &quot;Oxymetazoline hydrochloride, 0.5 mg/ 1 ml, Nasal spray, solution&quot;; <a href="http://terminology.hl7.org/5.0.0/CodeSystem-v3-WC.html">WHO ATC</a>#A03FA08 &quot;Cinitapride&quot;)</span></p><p><b>form</b>: Chewable tablet <span style="background: LightGoldenRodYellow; margin: 4px; border: 1px solid khaki"> (standardterms.edqm.eu#10228000)</span></p><h3>Ingredients</h3><table class="grid"><tr><td>-</td><td><b>Item[x]</b></td><td><b>Strength</b></td></tr><tr><td>*</td><td>CINITAPRIDE <span style="background: LightGoldenRodYellow; margin: 4px; border: 1px solid khaki"> (<a href="http://terminology.hl7.org/5.0.0/CodeSystem-UNII.html">Unique Ingredient Identifier (UNII)</a>#R8I97I2L24)</span></td><td>1 mg<span style="background: LightGoldenRodYellow"> (Details: UCUM code mg = 'mg')</span>/1 tablet<span style="background: LightGoldenRodYellow"> (Details: UCUM code tablet = 'tablet')</span></td></tr></table></div>
        </text>
        <code>
          <coding>
            <system value="https://www.gravitatehealth.eu/sid/man"/>
            <code value="16028/0049"/>
            <display value="Boots Decongestant 0.05% w/v Nasal spray"/>
          </coding>
          <coding>
            <system value="https://www.who-umc.org/phpid"/>
            <code value="0xF79CABF272B6A7EEF104DDDA44E82716"/>
            <display value="Oxymetazoline hydrochloride, 0.5 mg/ 1 ml, Nasal spray, solution"/>
          </coding>
          <coding>
            <system value="http://www.whocc.no/atc"/>
            <code value="A03FA08"/>
            <display value="Cinitapride"/>
          </coding>
        </code>
        <form>
          <coding>
            <system value="http://standardterms.edqm.eu"/>
            <code value="10228000"/>
            <display value="Chewable tablet"/>
          </coding>
          <text value="Chewable tablet"/>
        </form>
        <ingredient>
          <itemCodeableConcept>
            <coding>
              <system value="http://fdasis.nlm.nih.gov"/>
              <code value="R8I97I2L24"/>
              <display value="CINITAPRIDE"/>
            </coding>
            <text value="CINITAPRIDE"/>
          </itemCodeableConcept>
          <strength>
            <numerator>
              <value value="1"/>
              <system value="http://unitsofmeasure.org"/>
              <code value="mg"/>
            </numerator>
            <denominator>
              <value value="1"/>
              <system value="http://unitsofmeasure.org"/>
              <code value="tablet"/>
            </denominator>
          </strength>
        </ingredient>
      </Medication>
    </resource>
  </entry>
  <entry>
    <fullUrl value="urn:uuid:6f4151e9-91f6-4f1e-adc3-fb94dda77855"/>
    <resource>
      <Medication>
        <id value="6f4151e9-91f6-4f1e-adc3-fb94dda77855"/>
        <text>
          <status value="generated"/><div xmlns="http://www.w3.org/1999/xhtml"><p><b>Generated Narrative: Medication</b><a name="6f4151e9-91f6-4f1e-adc3-fb94dda77855"> </a></p><div style="display: inline-block; background-color: #d9e0e7; padding: 6px; margin: 4px; border: 1px solid #8da1b4; border-radius: 5px; line-height: 60%"><p style="margin-bottom: 0px">Resource Medication &quot;6f4151e9-91f6-4f1e-adc3-fb94dda77855&quot; </p></div><p><b>code</b>: Boots Decongestant 0.05% w/v Nasal spray <span style="background: LightGoldenRodYellow; margin: 4px; border: 1px solid khaki"> (man#16028/0049; phpid#0xF79CABF272B6A7EEF104DDDA44E82716 &quot;Oxymetazoline hydrochloride, 0.5 mg/ 1 ml, Nasal spray, solution&quot;; <a href="http://terminology.hl7.org/5.0.0/CodeSystem-v3-WC.html">WHO ATC</a>#R01AA05 &quot;oxymetazoline&quot;)</span></p><p><b>form</b>: Nasal spray, solution <span style="background: LightGoldenRodYellow; margin: 4px; border: 1px solid khaki"> (standardterms.edqm.eu#10808000)</span></p><h3>Ingredients</h3><table class="grid"><tr><td>-</td><td><b>Item[x]</b></td><td><b>Strength</b></td></tr><tr><td>*</td><td>oxymetazoline hydrochloride <span style="background: LightGoldenRodYellow; margin: 4px; border: 1px solid khaki"> (<a href="http://terminology.hl7.org/5.0.0/CodeSystem-UNII.html">Unique Ingredient Identifier (UNII)</a>#K89MJ0S5VY)</span></td><td>0.05 mg<span style="background: LightGoldenRodYellow"> (Details: UCUM code mg = 'mg')</span>/1 ml<span style="background: LightGoldenRodYellow"> (Details: UCUM code ml = 'ml')</span></td></tr></table></div>
        </text>
        <code>
          <coding>
            <system value="https://www.gravitatehealth.eu/sid/man"/>
            <code value="16028/0049"/>
            <display value="Boots Decongestant 0.05% w/v Nasal spray"/>
          </coding>
          <coding>
            <system value="https://www.who-umc.org/phpid"/>
            <code value="0xF79CABF272B6A7EEF104DDDA44E82716"/>
            <display value="Oxymetazoline hydrochloride, 0.5 mg/ 1 ml, Nasal spray, solution"/>
          </coding>
          <coding>
            <system value="http://www.whocc.no/atc"/>
            <code value="R01AA05"/>
            <display value="oxymetazoline"/>
          </coding>
        </code>
        <form>
          <coding>
            <system value="http://standardterms.edqm.eu"/>
            <code value="10808000"/>
            <display value="Nasal spray, solution"/>
          </coding>
          <text value="Nasal spray, solution"/>
        </form>
        <ingredient>
          <itemCodeableConcept>
            <coding>
              <system value="http://fdasis.nlm.nih.gov"/>
              <code value="K89MJ0S5VY"/>
              <display value="oxymetazoline hydrochloride"/>
            </coding>
            <text value="oxymetazoline hydrochloride"/>
          </itemCodeableConcept>
          <strength>
            <numerator>
              <value value="0.05"/>
              <system value="http://unitsofmeasure.org"/>
              <code value="mg"/>
            </numerator>
            <denominator>
              <value value="1"/>
              <system value="http://unitsofmeasure.org"/>
              <code value="ml"/>
            </denominator>
          </strength>
        </ingredient>
      </Medication>
    </resource>
  </entry>
  <entry>
    <fullUrl value="urn:uuid:6f4151e9-91f6-4f1e-adc3-fb94dda77856"/>
    <resource>
      <Medication>
        <id value="6f4151e9-91f6-4f1e-adc3-fb94dda77856"/>
        <text>
          <status value="generated"/><div xmlns="http://www.w3.org/1999/xhtml"><p><b>Generated Narrative: Medication</b><a name="6f4151e9-91f6-4f1e-adc3-fb94dda77856"> </a></p><div style="display: inline-block; background-color: #d9e0e7; padding: 6px; margin: 4px; border: 1px solid #8da1b4; border-radius: 5px; line-height: 60%"><p style="margin-bottom: 0px">Resource Medication &quot;6f4151e9-91f6-4f1e-adc3-fb94dda77856&quot; </p></div><p><b>code</b>: Boots Decongestant 0.05% w/v Nasal spray <span style="background: LightGoldenRodYellow; margin: 4px; border: 1px solid khaki"> (man#16028/0049; phpid#0xF79CABF272B6A7EEF104DDDA44E82716 &quot;Oxymetazoline hydrochloride, 0.5 mg/ 1 ml, Nasal spray, solution&quot;; <a href="http://terminology.hl7.org/5.0.0/CodeSystem-v3-WC.html">WHO ATC</a>#R01AA05 &quot;oxymetazoline&quot;)</span></p><p><b>form</b>: Nasal spray, solution <span style="background: LightGoldenRodYellow; margin: 4px; border: 1px solid khaki"> (standardterms.edqm.eu#10808000)</span></p><h3>Ingredients</h3><table class="grid"><tr><td>-</td><td><b>Item[x]</b></td><td><b>Strength</b></td></tr><tr><td>*</td><td>oxymetazoline hydrochloride <span style="background: LightGoldenRodYellow; margin: 4px; border: 1px solid khaki"> (<a href="http://terminology.hl7.org/5.0.0/CodeSystem-UNII.html">Unique Ingredient Identifier (UNII)</a>#K89MJ0S5VY)</span></td><td>0.05 mg<span style="background: LightGoldenRodYellow"> (Details: UCUM code mg = 'mg')</span>/1 ml<span style="background: LightGoldenRodYellow"> (Details: UCUM code ml = 'ml')</span></td></tr></table></div>
        </text>
        <code>
          <coding>
            <system value="https://www.gravitatehealth.eu/sid/man"/>
            <code value="16028/0049"/>
            <display value="Boots Decongestant 0.05% w/v Nasal spray"/>
          </coding>
          <coding>
            <system value="https://www.who-umc.org/phpid"/>
            <code value="0xF79CABF272B6A7EEF104DDDA44E82716"/>
            <display value="Oxymetazoline hydrochloride, 0.5 mg/ 1 ml, Nasal spray, solution"/>
          </coding>
          <coding>
            <system value="http://www.whocc.no/atc"/>
            <code value="R01AA05"/>
            <display value="oxymetazoline"/>
          </coding>
        </code>
        <form>
          <coding>
            <system value="http://standardterms.edqm.eu"/>
            <code value="10808000"/>
            <display value="Nasal spray, solution"/>
          </coding>
          <text value="Nasal spray, solution"/>
        </form>
        <ingredient>
          <itemCodeableConcept>
            <coding>
              <system value="http://fdasis.nlm.nih.gov"/>
              <code value="K89MJ0S5VY"/>
              <display value="oxymetazoline hydrochloride"/>
            </coding>
            <text value="oxymetazoline hydrochloride"/>
          </itemCodeableConcept>
          <strength>
            <numerator>
              <value value="0.05"/>
              <system value="http://unitsofmeasure.org"/>
              <code value="mg"/>
            </numerator>
            <denominator>
              <value value="1"/>
              <system value="http://unitsofmeasure.org"/>
              <code value="ml"/>
            </denominator>
          </strength>
        </ingredient>
      </Medication>
    </resource>
  </entry>
  <entry>
    <fullUrl value="urn:uuid:6f4151e9-91f6-4f1e-adc3-fb94dda77857"/>
    <resource>
      <Medication>
        <id value="6f4151e9-91f6-4f1e-adc3-fb94dda77857"/>
        <text>
          <status value="generated"/><div xmlns="http://www.w3.org/1999/xhtml"><p><b>Generated Narrative: Medication</b><a name="6f4151e9-91f6-4f1e-adc3-fb94dda77857"> </a></p><div style="display: inline-block; background-color: #d9e0e7; padding: 6px; margin: 4px; border: 1px solid #8da1b4; border-radius: 5px; line-height: 60%"><p style="margin-bottom: 0px">Resource Medication &quot;6f4151e9-91f6-4f1e-adc3-fb94dda77857&quot; </p></div><p><b>code</b>: Boots Decongestant 0.05% w/v Nasal spray <span style="background: LightGoldenRodYellow; margin: 4px; border: 1px solid khaki"> (man#16028/0049; phpid#0xF79CABF272B6A7EEF104DDDA44E82716 &quot;Oxymetazoline hydrochloride, 0.5 mg/ 1 ml, Nasal spray, solution&quot;; <a href="http://terminology.hl7.org/5.0.0/CodeSystem-v3-WC.html">WHO ATC</a>#R01AA05 &quot;oxymetazoline&quot;)</span></p><p><b>form</b>: Nasal spray, solution <span style="background: LightGoldenRodYellow; margin: 4px; border: 1px solid khaki"> (standardterms.edqm.eu#10808000)</span></p><h3>Ingredients</h3><table class="grid"><tr><td>-</td><td><b>Item[x]</b></td><td><b>Strength</b></td></tr><tr><td>*</td><td>oxymetazoline hydrochloride <span style="background: LightGoldenRodYellow; margin: 4px; border: 1px solid khaki"> (<a href="http://terminology.hl7.org/5.0.0/CodeSystem-UNII.html">Unique Ingredient Identifier (UNII)</a>#K89MJ0S5VY)</span></td><td>0.05 mg<span style="background: LightGoldenRodYellow"> (Details: UCUM code mg = 'mg')</span>/1 ml<span style="background: LightGoldenRodYellow"> (Details: UCUM code ml = 'ml')</span></td></tr></table></div>
        </text>
        <code>
          <coding>
            <system value="https://www.gravitatehealth.eu/sid/man"/>
            <code value="16028/0049"/>
            <display value="Boots Decongestant 0.05% w/v Nasal spray"/>
          </coding>
          <coding>
            <system value="https://www.who-umc.org/phpid"/>
            <code value="0xF79CABF272B6A7EEF104DDDA44E82716"/>
            <display value="Oxymetazoline hydrochloride, 0.5 mg/ 1 ml, Nasal spray, solution"/>
          </coding>
          <coding>
            <system value="http://www.whocc.no/atc"/>
            <code value="R01AA05"/>
            <display value="oxymetazoline"/>
          </coding>
        </code>
        <form>
          <coding>
            <system value="http://standardterms.edqm.eu"/>
            <code value="10808000"/>
            <display value="Nasal spray, solution"/>
          </coding>
          <text value="Nasal spray, solution"/>
        </form>
        <ingredient>
          <itemCodeableConcept>
            <coding>
              <system value="http://fdasis.nlm.nih.gov"/>
              <code value="K89MJ0S5VY"/>
              <display value="oxymetazoline hydrochloride"/>
            </coding>
            <text value="oxymetazoline hydrochloride"/>
          </itemCodeableConcept>
          <strength>
            <numerator>
              <value value="0.05"/>
              <system value="http://unitsofmeasure.org"/>
              <code value="mg"/>
            </numerator>
            <denominator>
              <value value="1"/>
              <system value="http://unitsofmeasure.org"/>
              <code value="ml"/>
            </denominator>
          </strength>
        </ingredient>
      </Medication>
    </resource>
  </entry>
</Bundle>