{
  "resourceType" : "Bundle",
  "id" : "gravitate-Cecilia",
  "identifier" : {
    "system" : "https://www.gravitatehealth.eu/sid/doc",
    "value" : "Cecilia-ips-1"
  },
  "type" : "document",
  "timestamp" : "2021-09-03T08:38:00+02:00",
  "entry" : [{
    "fullUrl" : "urn:uuid:93ee42d0-4c5f-4bf7-8894-bb21ef80dbc5",
    "resource" : {
      "resourceType" : "Composition",
      "id" : "gravitate-Cecilia",
      "text" : {
        "status" : "generated",
        "div" : "<div xmlns=\"http://www.w3.org/1999/xhtml\"><p><b>Generated Narrative: Composition</b><a name=\"gravitate-Cecilia\"> </a></p><div style=\"display: inline-block; background-color: #d9e0e7; padding: 6px; margin: 4px; border: 1px solid #8da1b4; border-radius: 5px; line-height: 60%\"><p style=\"margin-bottom: 0px\">Resource Composition &quot;gravitate-Cecilia&quot; </p></div><p><b>status</b>: final</p><p><b>type</b>: Patient summary Document <span style=\"background: LightGoldenRodYellow; margin: 4px; border: 1px solid khaki\"> (<a href=\"https://loinc.org/\">LOINC</a>#60591-5)</span></p><p><b>date</b>: 2018-07-10 15:22:00+0200</p><p><b>author</b>: <a href=\"#Practitioner_cecilia-pract\">See above (Practitioner/cecilia-pract: Dr. Anna Karlsson)</a></p><p><b>title</b>: Patient Summary (Cecilia Gravitate)</p><p><b>confidentiality</b>: N</p></div>"
      },
      "status" : "final",
      "type" : {
        "coding" : [{
          "system" : "http://loinc.org",
          "code" : "60591-5",
          "display" : "Patient summary Document"
        }]
      },
      "subject" : {
        "reference" : "Patient/cecilia-patient",
        "display" : "Cecilia Gravitate"
      },
      "date" : "2018-07-10T15:22:00+02:00",
      "author" : [{
        "reference" : "Practitioner/cecilia-pract",
        "display" : "Dr. Anna Karlsson"
      }],
      "title" : "Patient Summary (Cecilia Gravitate)",
      "confidentiality" : "N",
      "section" : [{
        "title" : "Problem List",
        "code" : {
          "coding" : [{
            "system" : "http://loinc.org",
            "code" : "11450-4",
            "display" : "Problem list Reported"
          }]
        },
        "text" : {
          "status" : "generated",
          "div" : "<div xmlns=\"http://www.w3.org/1999/xhtml\"><ul><li>COPD</li><li>Diabetes type 2</li><li>Osteoporosis</li><li>Congestive Heart Failure</li></ul></div>"
        },
        "entry" : [{
          "reference" : "urn:uuid:7b69285e-bf3a-4b8d-a30f-8effd6059a4f",
          "display" : "COPD"
        },
        {
          "reference" : "urn:uuid:0d4addd6-c3ee-468c-9202-026a24293f32",
          "display" : "Diabetese Type 2"
        },
        {
          "reference" : "urn:uuid:c2a8ea98-cf92-4f57-933c-7d857fb20b1d",
          "display" : "Osteoporosis"
        },
        {
          "reference" : "urn:uuid:ebb1a59f-a249-40dd-9868-25879bc9bb71",
          "display" : "Congestive Heart Failure"
        }]
      },
      {
        "title" : "Medication Summary",
        "code" : {
          "coding" : [{
            "system" : "http://loinc.org",
            "code" : "10160-0",
            "display" : "Hx of Medication use"
          }]
        },
        "text" : {
          "status" : "generated",
          "div" : "<div xmlns=\"http://www.w3.org/1999/xhtml\"><table><thead><tr><th>Brand Name</th><th>MAN</th><th>Active Substance</th><th>Common Name</th><th>ATC</th><th>Strength</th><th>Dose Form</th><th>RoA</th></tr></thead><tbody><tr><td>Skilarence</td><td>EU/1/17/1201/001</td><td>dimethyl fumarate (FO2303MNI2)</td><td>dimethyl fumarate</td><td>L04AX07</td><td>30 mg</td><td>Gastro-resistant tablet</td><td>Oral use</td></tr><tr><td>Karvea</td><td>EMEA/H/C/000142</td><td>irbesartan (J0E2756Z7N)</td><td>irbesartan</td><td>C09DA04</td><td>75 mg</td><td>Tablet</td><td>Oral use</td></tr><tr><td>Boots Decongestant 0.05% w/v Nasal spray</td><td>PL 16028/0049</td><td>oxymetazoline hydrochloride (K89MJ0S5VY)</td><td>oxymetazoline hydrochloride</td><td>R01AA05</td><td>0.05 mg / 1 ml</td><td>Nasal spray, solution</td><td>Nasal use</td></tr></tbody></table></div>"
        },
        "entry" : [{
          "reference" : "MedicationStatement/cecilia-med-stat-1",
          "display" : "Fosamax 70 mg tablets"
        },
        {
          "reference" : "MedicationStatement/cecilia-med-stat-2",
          "display" : "Monuril 3 g granules for oral solution"
        },
        {
          "reference" : "MedicationStatement/cecilia-med-stat-3",
          "display" : "Oxymetazoline hydrochloride  0.05 mg / 1 ml Spray"
        }]
      }]
    }
  },
  {
    "fullUrl" : "urn:uuid:f68aa05c-63e2-4305-992b-a421f743e328",
    "resource" : {
      "resourceType" : "Patient",
      "id" : "cecilia-patient",
      "text" : {
        "status" : "generated",
        "div" : "<div xmlns=\"http://www.w3.org/1999/xhtml\">Cecilia Gravitate, Female, 75 years old (1946-05-05)</div>"
      },
      "extension" : [{
        "extension" : [{
          "url" : "code",
          "valueCodeableConcept" : {
            "coding" : [{
              "system" : "urn:iso:std:iso:3166",
              "code" : "NO",
              "display" : "Norway"
            }]
          }
        }],
        "url" : "http://hl7.org/fhir/StructureDefinition/patient-citizenship"
      }],
      "identifier" : [{
        "system" : "https://www.gravitatehealth.eu/sid/doc",
        "value" : "Cecilia-1"
      }],
      "active" : true,
      "name" : [{
        "family" : "Gravitate",
        "given" : ["Cecilia"]
      }],
      "gender" : "female",
      "birthDate" : "1946-05-05"
    }
  },
  {
    "fullUrl" : "urn:uuid:2153a841-3c69-47cb-948d-1d97ce20eb61",
    "resource" : {
      "resourceType" : "Practitioner",
      "id" : "cecilia-pract",
      "text" : {
        "status" : "generated",
        "div" : "<div xmlns=\"http://www.w3.org/1999/xhtml\">Dr. Anne Karlsson</div>"
      },
      "name" : [{
        "family" : "Karlsson",
        "given" : ["Anne"],
        "prefix" : ["Dr."]
      }]
    }
  },
  {
    "fullUrl" : "urn:uuid:7b69285e-bf3a-4b8d-a30f-8effd6059a4f",
    "resource" : {
      "resourceType" : "Condition",
      "id" : "cecilia-cond-1",
      "text" : {
        "status" : "generated",
        "div" : "<div xmlns=\"http://www.w3.org/1999/xhtml\"><p><b>Generated Narrative: Condition</b><a name=\"cecilia-cond-1\"> </a></p><div style=\"display: inline-block; background-color: #d9e0e7; padding: 6px; margin: 4px; border: 1px solid #8da1b4; border-radius: 5px; line-height: 60%\"><p style=\"margin-bottom: 0px\">Resource Condition &quot;cecilia-cond-1&quot; </p></div><p><b>clinicalStatus</b>: Active <span style=\"background: LightGoldenRodYellow; margin: 4px; border: 1px solid khaki\"> (<a href=\"http://terminology.hl7.org/5.0.0/CodeSystem-condition-clinical.html\">Condition Clinical Status Codes</a>#active)</span></p><p><b>code</b>: Psoriasis <span style=\"background: LightGoldenRodYellow; margin: 4px; border: 1px solid khaki\"> (<a href=\"https://browser.ihtsdotools.org/\">SNOMED CT</a>#9014002)</span></p><p><b>subject</b>: <a href=\"#Patient_cecilia-patient\">See above (Patient/cecilia-patient: Cecilia Gravitate)</a></p><p><b>asserter</b>: <a href=\"#Practitioner_cecilia-pract\">See above (urn:uuid:2153a841-3c69-47cb-948d-1d97ce20eb61: Dr. Anna Karlsson)</a></p></div>"
      },
      "clinicalStatus" : {
        "coding" : [{
          "system" : "http://terminology.hl7.org/CodeSystem/condition-clinical",
          "code" : "active"
        }]
      },
      "code" : {
        "coding" : [{
          "system" : "http://snomed.info/sct",
          "code" : "9014002",
          "display" : "Psoriasis"
        }],
        "text" : "Psoriasis"
      },
      "subject" : {
        "reference" : "Patient/cecilia-patient",
        "display" : "Cecilia Gravitate"
      },
      "asserter" : {
        "reference" : "urn:uuid:2153a841-3c69-47cb-948d-1d97ce20eb61",
        "display" : "Dr. Anna Karlsson"
      }
    }
  },
  {
    "fullUrl" : "urn:uuid:ebb1a59f-a249-40dd-9868-25879bc9bb71",
    "resource" : {
      "resourceType" : "Condition",
      "id" : "cecilia-cond-2",
      "text" : {
        "status" : "generated",
        "div" : "<div xmlns=\"http://www.w3.org/1999/xhtml\">Congestive heart failure (2015)</div>"
      },
      "clinicalStatus" : {
        "coding" : [{
          "system" : "http://terminology.hl7.org/CodeSystem/condition-clinical",
          "code" : "active"
        }]
      },
      "code" : {
        "coding" : [{
          "system" : "http://snomed.info/sct",
          "code" : "42343007",
          "display" : "Congestive heart failure"
        }],
        "text" : "Congestive heart failure"
      },
      "subject" : {
        "reference" : "Patient/cecilia-patient",
        "display" : "Cecilia Gravitate"
      },
      "onsetDateTime" : "2015",
      "asserter" : {
        "reference" : "urn:uuid:2153a841-3c69-47cb-948d-1d97ce20eb61",
        "display" : "Dr. Anna Karlsson"
      }
    }
  },
  {
    "fullUrl" : "urn:uuid:0d4addd6-c3ee-468c-9202-026a24293f32",
    "resource" : {
      "resourceType" : "Condition",
      "id" : "cecilia-cond-3",
      "text" : {
        "status" : "generated",
        "div" : "<div xmlns=\"http://www.w3.org/1999/xhtml\"><p><b>Generated Narrative: Condition</b><a name=\"cecilia-cond-3\"> </a></p><div style=\"display: inline-block; background-color: #d9e0e7; padding: 6px; margin: 4px; border: 1px solid #8da1b4; border-radius: 5px; line-height: 60%\"><p style=\"margin-bottom: 0px\">Resource Condition &quot;cecilia-cond-3&quot; </p></div><p><b>clinicalStatus</b>: Active <span style=\"background: LightGoldenRodYellow; margin: 4px; border: 1px solid khaki\"> (<a href=\"http://terminology.hl7.org/5.0.0/CodeSystem-condition-clinical.html\">Condition Clinical Status Codes</a>#active)</span></p><p><b>code</b>: Hypertension <span style=\"background: LightGoldenRodYellow; margin: 4px; border: 1px solid khaki\"> (<a href=\"https://browser.ihtsdotools.org/\">SNOMED CT</a>#38341003 &quot;HT - Hypertension&quot;)</span></p><p><b>subject</b>: <a href=\"#Patient_cecilia-patient\">See above (Patient/cecilia-patient: Cecilia Gravitate)</a></p><p><b>onset</b>: 1993</p></div>"
      },
      "clinicalStatus" : {
        "coding" : [{
          "system" : "http://terminology.hl7.org/CodeSystem/condition-clinical",
          "code" : "active"
        }]
      },
      "code" : {
        "coding" : [{
          "system" : "http://snomed.info/sct",
          "code" : "38341003",
          "display" : "HT - Hypertension"
        }],
        "text" : "Hypertension"
      },
      "subject" : {
        "reference" : "Patient/cecilia-patient",
        "display" : "Cecilia Gravitate"
      },
      "onsetDateTime" : "1993"
    }
  },
  {
    "fullUrl" : "urn:uuid:c2a8ea98-cf92-4f57-933c-7d857fb20b1d",
    "resource" : {
      "resourceType" : "Condition",
      "id" : "cecilia-cond-4",
      "text" : {
        "status" : "generated",
        "div" : "<div xmlns=\"http://www.w3.org/1999/xhtml\"><p><b>Generated Narrative: Condition</b><a name=\"cecilia-cond-4\"> </a></p><div style=\"display: inline-block; background-color: #d9e0e7; padding: 6px; margin: 4px; border: 1px solid #8da1b4; border-radius: 5px; line-height: 60%\"><p style=\"margin-bottom: 0px\">Resource Condition &quot;cecilia-cond-4&quot; </p></div><p><b>clinicalStatus</b>: Active <span style=\"background: LightGoldenRodYellow; margin: 4px; border: 1px solid khaki\"> (<a href=\"http://terminology.hl7.org/5.0.0/CodeSystem-condition-clinical.html\">Condition Clinical Status Codes</a>#active)</span></p><p><b>code</b>: Hypertension <span style=\"background: LightGoldenRodYellow; margin: 4px; border: 1px solid khaki\"> (<a href=\"https://browser.ihtsdotools.org/\">SNOMED CT</a>#38341003 &quot;HT - Hypertension&quot;)</span></p><p><b>subject</b>: <a href=\"#Patient_cecilia-patient\">See above (Patient/cecilia-patient: Cecilia Gravitate)</a></p><p><b>onset</b>: 1993</p></div>"
      },
      "clinicalStatus" : {
        "coding" : [{
          "system" : "http://terminology.hl7.org/CodeSystem/condition-clinical",
          "code" : "active"
        }]
      },
      "code" : {
        "coding" : [{
          "system" : "http://snomed.info/sct",
          "code" : "38341003",
          "display" : "HT - Hypertension"
        }],
        "text" : "Hypertension"
      },
      "subject" : {
        "reference" : "Patient/cecilia-patient",
        "display" : "Cecilia Gravitate"
      },
      "onsetDateTime" : "1993"
    }
  },
  {
    "fullUrl" : "urn:uuid:29074ca4-efcb-4ff4-8446-feed2399a899",
    "resource" : {
      "resourceType" : "MedicationStatement",
      "id" : "cecilia-med-stat-1",
      "text" : {
        "status" : "generated",
        "div" : "<div xmlns=\"http://www.w3.org/1999/xhtml\"><table><thead><tr><th>Brand Name</th><th>MAN</th><th>Active Substance</th><th>Common Name</th><th>ATC</th><th>Strength</th><th>Dose Form</th><th>RoA</th></tr></thead><tbody><tr><td>Skilarence</td><td>EU/1/17/1201/001</td><td>dimethyl fumarate (FO2303MNI2)</td><td>dimethyl fumarate</td><td>L04AX07</td><td>30 mg</td><td>Gastro-resistant tablet</td><td>Oral use</td></tr></tbody></table></div>"
      },
      "status" : "active",
      "medicationReference" : {
        "reference" : "urn:uuid:b50ae644-e0b7-4007-809f-26f493cbe36c",
        "display" : "Dimethyl fumarate 30 mg Tablet"
      },
      "subject" : {
        "reference" : "Patient/cecilia-patient",
        "display" : "Cecilia Gravitate"
      },
      "dosage" : [{
        "route" : {
          "coding" : [{
            "system" : "http://standardterms.edqm.eu",
            "code" : "20053000",
            "display" : "Oral use"
          }]
        }
      }]
    }
  },
  {
    "fullUrl" : "urn:uuid:f6cb1218-f81c-4338-80d8-3c10910f78fd",
    "resource" : {
      "resourceType" : "MedicationStatement",
      "id" : "cecilia-med-stat-2",
      "text" : {
        "status" : "generated",
        "div" : "<div xmlns=\"http://www.w3.org/1999/xhtml\"><p><b>Generated Narrative: MedicationStatement</b><a name=\"cecilia-med-stat-2\"> </a></p><div style=\"display: inline-block; background-color: #d9e0e7; padding: 6px; margin: 4px; border: 1px solid #8da1b4; border-radius: 5px; line-height: 60%\"><p style=\"margin-bottom: 0px\">Resource MedicationStatement &quot;cecilia-med-stat-2&quot; </p></div><p><b>status</b>: active</p><p><b>medication</b>: <a href=\"#Medication_de131e15-ed13-4b31-b38c-3204a84d99c4\">See above (urn:uuid:de131e15-ed13-4b31-b38c-3204a84d99c4: Irbesartan 75 mg Tablet)</a></p><p><b>subject</b>: <a href=\"#Patient_cecilia-patient\">See above (Patient/cecilia-patient: Cecilia Gravitate)</a></p><h3>Dosages</h3><table class=\"grid\"><tr><td>-</td><td><b>Route</b></td></tr><tr><td>*</td><td>Oral use <span style=\"background: LightGoldenRodYellow; margin: 4px; border: 1px solid khaki\"> (standardterms.edqm.eu#20053000)</span></td></tr></table></div>"
      },
      "status" : "active",
      "medicationReference" : {
        "reference" : "urn:uuid:de131e15-ed13-4b31-b38c-3204a84d99c4",
        "display" : "Irbesartan 75 mg Tablet"
      },
      "subject" : {
        "reference" : "Patient/cecilia-patient",
        "display" : "Cecilia Gravitate"
      },
      "dosage" : [{
        "route" : {
          "coding" : [{
            "system" : "http://standardterms.edqm.eu",
            "code" : "20053000",
            "display" : "Oral use"
          }]
        }
      }]
    }
  },
  {
    "fullUrl" : "urn:uuid:f26084c9-b1c8-46d9-acb2-1d400ade87ba",
    "resource" : {
      "resourceType" : "MedicationStatement",
      "id" : "cecilia-med-stat-3",
      "text" : {
        "status" : "generated",
        "div" : "<div xmlns=\"http://www.w3.org/1999/xhtml\"><p><b>Generated Narrative: MedicationStatement</b><a name=\"cecilia-med-stat-3\"> </a></p><div style=\"display: inline-block; background-color: #d9e0e7; padding: 6px; margin: 4px; border: 1px solid #8da1b4; border-radius: 5px; line-height: 60%\"><p style=\"margin-bottom: 0px\">Resource MedicationStatement &quot;cecilia-med-stat-3&quot; </p></div><p><b>status</b>: active</p><p><b>medication</b>: <a href=\"#Medication_9ac3356c-4ea4-4814-84c3-235484f2ef19\">See above (urn:uuid:9ac3356c-4ea4-4814-84c3-235484f2ef19: Oxymetazoline hydrochloride  0.05 mg / 1 ml Spray)</a></p><p><b>subject</b>: <a href=\"#Patient_cecilia-patient\">See above (Patient/cecilia-patient: Cecilia Gravitate)</a></p><h3>Dosages</h3><table class=\"grid\"><tr><td>-</td><td><b>Route</b></td></tr><tr><td>*</td><td>Nasal use <span style=\"background: LightGoldenRodYellow; margin: 4px; border: 1px solid khaki\"> (standardterms.edqm.eu#20049000)</span></td></tr></table></div>"
      },
      "status" : "active",
      "medicationReference" : {
        "reference" : "urn:uuid:9ac3356c-4ea4-4814-84c3-235484f2ef19",
        "display" : "Oxymetazoline hydrochloride  0.05 mg / 1 ml Spray"
      },
      "subject" : {
        "reference" : "Patient/cecilia-patient",
        "display" : "Cecilia Gravitate"
      },
      "dosage" : [{
        "route" : {
          "coding" : [{
            "system" : "http://standardterms.edqm.eu",
            "code" : "20049000",
            "display" : "Nasal use"
          }]
        }
      }]
    }
  },
  {
    "fullUrl" : "urn:uuid:b50ae644-e0b7-4007-809f-26f493cbe36c",
    "resource" : {
      "resourceType" : "Medication",
      "id" : "b50ae644-e0b7-4007-809f-26f493cbe36c",
      "text" : {
        "status" : "generated",
        "div" : "<div xmlns=\"http://www.w3.org/1999/xhtml\"><p><b>Generated Narrative: Medication</b><a name=\"b50ae644-e0b7-4007-809f-26f493cbe36c\"> </a></p><div style=\"display: inline-block; background-color: #d9e0e7; padding: 6px; margin: 4px; border: 1px solid #8da1b4; border-radius: 5px; line-height: 60%\"><p style=\"margin-bottom: 0px\">Resource Medication &quot;b50ae644-e0b7-4007-809f-26f493cbe36c&quot; </p></div><p><b>code</b>: Skilarence <span style=\"background: LightGoldenRodYellow; margin: 4px; border: 1px solid khaki\"> (marketingAuthorizationNumber#EU/1/17/1201/001; phpid#0x9982CA8A825D4561506CE808982E3B9D &quot;dimethyl fumarate, 30 mg/ 1 tablet, Gastro-resistant tablet&quot;; <a href=\"http://terminology.hl7.org/5.0.0/CodeSystem-v3-WC.html\">WHO ATC</a>#L04AX07 &quot;dimethyl fumarate&quot;)</span></p><p><b>form</b>: Gastro-resistant tablet <span style=\"background: LightGoldenRodYellow; margin: 4px; border: 1px solid khaki\"> (standardterms.edqm.eu#10225000)</span></p><h3>Ingredients</h3><table class=\"grid\"><tr><td>-</td><td><b>Item[x]</b></td><td><b>Strength</b></td></tr><tr><td>*</td><td>dimethyl fumarate <span style=\"background: LightGoldenRodYellow; margin: 4px; border: 1px solid khaki\"> (<a href=\"http://terminology.hl7.org/5.0.0/CodeSystem-UNII.html\">Unique Ingredient Identifier (UNII)</a>#FO2303MNI2)</span></td><td>30 mg<span style=\"background: LightGoldenRodYellow\"> (Details: UCUM code mg = 'mg')</span>/1 Tablet<span style=\"background: LightGoldenRodYellow\"> (Details: UCUM code {tablet} = '{tablet}')</span></td></tr></table></div>"
      },
      "code" : {
        "coding" : [{
          "system" : "http://ema.europa.eu/fhir/marketingAuthorizationNumber",
          "code" : "EU/1/17/1201/001",
          "display" : "Skilarence"
        },
        {
          "system" : "https://www.who-umc.org/phpid",
          "code" : "0x9982CA8A825D4561506CE808982E3B9D",
          "display" : "dimethyl fumarate, 30 mg/ 1 tablet, Gastro-resistant tablet"
        },
        {
          "system" : "http://www.whocc.no/atc",
          "code" : "L04AX07",
          "display" : "dimethyl fumarate"
        }]
      },
      "form" : {
        "coding" : [{
          "system" : "http://standardterms.edqm.eu",
          "code" : "10225000",
          "display" : "Gastro-resistant tablet"
        }]
      },
      "ingredient" : [{
        "itemCodeableConcept" : {
          "coding" : [{
            "system" : "http://fdasis.nlm.nih.gov",
            "code" : "FO2303MNI2",
            "display" : "dimethyl fumarate"
          }],
          "text" : "dimethyl fumarate"
        },
        "strength" : {
          "numerator" : {
            "value" : 30,
            "unit" : "mg",
            "system" : "http://unitsofmeasure.org",
            "code" : "mg"
          },
          "denominator" : {
            "value" : 1,
            "unit" : "Tablet",
            "system" : "http://unitsofmeasure.org",
            "code" : "{tablet}"
          }
        }
      }]
    }
  },
  {
    "fullUrl" : "urn:uuid:de131e15-ed13-4b31-b38c-3204a84d99c4",
    "resource" : {
      "resourceType" : "Medication",
      "id" : "de131e15-ed13-4b31-b38c-3204a84d99c4",
      "text" : {
        "status" : "generated",
        "div" : "<div xmlns=\"http://www.w3.org/1999/xhtml\"><p><b>Generated Narrative: Medication</b><a name=\"de131e15-ed13-4b31-b38c-3204a84d99c4\"> </a></p><div style=\"display: inline-block; background-color: #d9e0e7; padding: 6px; margin: 4px; border: 1px solid #8da1b4; border-radius: 5px; line-height: 60%\"><p style=\"margin-bottom: 0px\">Resource Medication &quot;de131e15-ed13-4b31-b38c-3204a84d99c4&quot; </p></div><p><b>code</b>: Karvea <span style=\"background: LightGoldenRodYellow; margin: 4px; border: 1px solid khaki\"> (marketingAuthorizationNumber#EMEA/H/C/000142; phpid#0x8DFB446EDB3B8AE508AE493827A704E4 &quot;Irbesartan, 75 mg/ 1 tablet, Tablet&quot;; <a href=\"http://terminology.hl7.org/5.0.0/CodeSystem-v3-WC.html\">WHO ATC</a>#C09DA04 &quot;irbesartan and diuretics&quot;)</span></p><p><b>form</b>: Tablet <span style=\"background: LightGoldenRodYellow; margin: 4px; border: 1px solid khaki\"> (standardterms.edqm.eu#10219000)</span></p><h3>Ingredients</h3><table class=\"grid\"><tr><td>-</td><td><b>Item[x]</b></td><td><b>Strength</b></td></tr><tr><td>*</td><td>irbesartan <span style=\"background: LightGoldenRodYellow; margin: 4px; border: 1px solid khaki\"> (<a href=\"http://terminology.hl7.org/5.0.0/CodeSystem-UNII.html\">Unique Ingredient Identifier (UNII)</a>#J0E2756Z7N)</span></td><td>75 mg<span style=\"background: LightGoldenRodYellow\"> (Details: UCUM code mg = 'mg')</span>/1 Tablet<span style=\"background: LightGoldenRodYellow\"> (Details: UCUM code {tablet} = '{tablet}')</span></td></tr></table></div>"
      },
      "code" : {
        "coding" : [{
          "system" : "http://ema.europa.eu/fhir/marketingAuthorizationNumber",
          "code" : "EMEA/H/C/000142",
          "display" : "Karvea"
        },
        {
          "system" : "https://www.who-umc.org/phpid",
          "code" : "0x8DFB446EDB3B8AE508AE493827A704E4",
          "display" : "Irbesartan, 75 mg/ 1 tablet, Tablet"
        },
        {
          "system" : "http://www.whocc.no/atc",
          "code" : "C09DA04",
          "display" : "irbesartan and diuretics"
        }]
      },
      "form" : {
        "coding" : [{
          "system" : "http://standardterms.edqm.eu",
          "code" : "10219000",
          "display" : "Tablet"
        }]
      },
      "ingredient" : [{
        "itemCodeableConcept" : {
          "coding" : [{
            "system" : "http://fdasis.nlm.nih.gov",
            "code" : "J0E2756Z7N",
            "display" : "irbesartan"
          }],
          "text" : "irbesartan"
        },
        "strength" : {
          "numerator" : {
            "value" : 75,
            "unit" : "mg",
            "system" : "http://unitsofmeasure.org",
            "code" : "mg"
          },
          "denominator" : {
            "value" : 1,
            "unit" : "Tablet",
            "system" : "http://unitsofmeasure.org",
            "code" : "{tablet}"
          }
        }
      }]
    }
  },
  {
    "fullUrl" : "urn:uuid:9ac3356c-4ea4-4814-84c3-235484f2ef19",
    "resource" : {
      "resourceType" : "Medication",
      "id" : "9ac3356c-4ea4-4814-84c3-235484f2ef19",
      "text" : {
        "status" : "generated",
        "div" : "<div xmlns=\"http://www.w3.org/1999/xhtml\"><p><b>Generated Narrative: Medication</b><a name=\"9ac3356c-4ea4-4814-84c3-235484f2ef19\"> </a></p><div style=\"display: inline-block; background-color: #d9e0e7; padding: 6px; margin: 4px; border: 1px solid #8da1b4; border-radius: 5px; line-height: 60%\"><p style=\"margin-bottom: 0px\">Resource Medication &quot;9ac3356c-4ea4-4814-84c3-235484f2ef19&quot; </p></div><p><b>code</b>: Boots Decongestant 0.05% w/v Nasal spray <span style=\"background: LightGoldenRodYellow; margin: 4px; border: 1px solid khaki\"> (man#16028/0049; phpid#0xF79CABF272B6A7EEF104DDDA44E82716 &quot;Oxymetazoline hydrochloride, 0.5 mg/ 1 ml, Nasal spray, solution&quot;; <a href=\"http://terminology.hl7.org/5.0.0/CodeSystem-v3-WC.html\">WHO ATC</a>#R01AA05 &quot;oxymetazoline&quot;)</span></p><p><b>form</b>: Nasal spray, solution <span style=\"background: LightGoldenRodYellow; margin: 4px; border: 1px solid khaki\"> ()</span></p><h3>Ingredients</h3><table class=\"grid\"><tr><td>-</td><td><b>Item[x]</b></td><td><b>Strength</b></td></tr><tr><td>*</td><td>oxymetazoline hydrochloride <span style=\"background: LightGoldenRodYellow; margin: 4px; border: 1px solid khaki\"> (<a href=\"http://terminology.hl7.org/5.0.0/CodeSystem-UNII.html\">Unique Ingredient Identifier (UNII)</a>#K89MJ0S5VY)</span></td><td>0.05 mg<span style=\"background: LightGoldenRodYellow\"> (Details: UCUM code mg = 'mg')</span>/1 ml<span style=\"background: LightGoldenRodYellow\"> (Details: UCUM code ml = 'ml')</span></td></tr></table></div>"
      },
      "code" : {
        "coding" : [{
          "system" : "https://www.gravitatehealth.eu/sid/man",
          "code" : "16028/0049",
          "display" : "Boots Decongestant 0.05% w/v Nasal spray"
        },
        {
          "system" : "https://www.who-umc.org/phpid",
          "code" : "0xF79CABF272B6A7EEF104DDDA44E82716",
          "display" : "Oxymetazoline hydrochloride, 0.5 mg/ 1 ml, Nasal spray, solution"
        },
        {
          "system" : "http://www.whocc.no/atc",
          "code" : "R01AA05",
          "display" : "oxymetazoline"
        }]
      },
      "form" : {
        "text" : "Nasal spray, solution"
      },
      "ingredient" : [{
        "itemCodeableConcept" : {
          "coding" : [{
            "system" : "http://fdasis.nlm.nih.gov",
            "code" : "K89MJ0S5VY",
            "display" : "oxymetazoline hydrochloride"
          }],
          "text" : "oxymetazoline hydrochloride"
        },
        "strength" : {
          "numerator" : {
            "value" : 0.05,
            "unit" : "mg",
            "system" : "http://unitsofmeasure.org",
            "code" : "mg"
          },
          "denominator" : {
            "value" : 1,
            "unit" : "ml",
            "system" : "http://unitsofmeasure.org",
            "code" : "ml"
          }
        }
      }]
    }
  }]
}